trial_type,trial_index,trial_counter,trial_number,repeated_trial,time_elapsed,random_id,condition,participant_id,rt,response,stimulus,nameability,correct_category,correct,file_name,Language,Art_background,Strategy,Issues,Why_experiment,Extra_info,participant_is_group_member,is_previous_correct
categorize-image,6,1,1,FALSE,17585,p0ant7uvweh,hard,badger,2737,a,stimuli/experiment1a/low_A_000.png,low,A,TRUE,/Users/martincz/GitHub/COGS119/group_wi26_nameability/analysis/../data/raw_data/p0ant7uvweh_1772140282964.csv,Yes,Digital art and illustration,"Feeling the ""vibe"" or ""feel"" of the three colors helps differentiate each of them from each other. Also, feeling whether the overall palette feels cool or warm helps. I think warmer palettes were more category A while cooler palettes were more category B.",No,Statistical learning of sorting things into categories with feedback and corrections trials.,No but Fluffy is cute!,FALSE,TRUE
categorize-image,9,2,2,FALSE,24205,p0ant7uvweh,hard,badger,3611,a,stimuli/experiment1a/low_A_001.png,low,A,TRUE,/Users/martincz/GitHub/COGS119/group_wi26_nameability/analysis/../data/raw_data/p0ant7uvweh_1772140282964.csv,Yes,Digital art and illustration,"Feeling the ""vibe"" or ""feel"" of the three colors helps differentiate each of them from each other. Also, feeling whether the overall palette feels cool or warm helps. I think warmer palettes were more category A while cooler palettes were more category B.",No,Statistical learning of sorting things into categories with feedback and corrections trials.,No but Fluffy is cute!,FALSE,TRUE
categorize-image,12,3,3,FALSE,28349,p0ant7uvweh,hard,badger,1137,b,stimuli/experiment1a/low_B_111.png,low,B,TRUE,/Users/martincz/GitHub/COGS119/group_wi26_nameability/analysis/../data/raw_data/p0ant7uvweh_1772140282964.csv,Yes,Digital art and illustration,"Feeling the ""vibe"" or ""feel"" of the three colors helps differentiate each of them from each other. Also, feeling whether the overall palette feels cool or warm helps. I think warmer palettes were more category A while cooler palettes were more category B.",No,Statistical learning of sorting things into categories with feedback and corrections trials.,No but Fluffy is cute!,FALSE,TRUE
categorize-image,15,4,4,FALSE,32004,p0ant7uvweh,hard,badger,648,b,stimuli/experiment1a/low_B_111.png,low,B,TRUE,/Users/martincz/GitHub/COGS119/group_wi26_nameability/analysis/../data/raw_data/p0ant7uvweh_1772140282964.csv,Yes,Digital art and illustration,"Feeling the ""vibe"" or ""feel"" of the three colors helps differentiate each of them from each other. Also, feeling whether the overall palette feels cool or warm helps. I think warmer palettes were more category A while cooler palettes were more category B.",No,Statistical learning of sorting things into categories with feedback and corrections trials.,No but Fluffy is cute!,FALSE,TRUE
categorize-image,18,5,5,FALSE,36118,p0ant7uvweh,hard,badger,1107,a,stimuli/experiment1a/low_B_110.png,low,B,FALSE,/Users/martincz/GitHub/COGS119/group_wi26_nameability/analysis/../data/raw_data/p0ant7uvweh_1772140282964.csv,Yes,Digital art and illustration,"Feeling the ""vibe"" or ""feel"" of the three colors helps differentiate each of them from each other. Also, feeling whether the overall palette feels cool or warm helps. I think warmer palettes were more category A while cooler palettes were more category B.",No,Statistical learning of sorting things into categories with feedback and corrections trials.,No but Fluffy is cute!,FALSE,TRUE
categorize-image,20,6,5,TRUE,39430,p0ant7uvweh,hard,badger,806,b,stimuli/experiment1a/low_B_110.png,low,B,TRUE,/Users/martincz/GitHub/COGS119/group_wi26_nameability/analysis/../data/raw_data/p0ant7uvweh_1772140282964.csv,Yes,Digital art and illustration,"Feeling the ""vibe"" or ""feel"" of the three colors helps differentiate each of them from each other. Also, feeling whether the overall palette feels cool or warm helps. I think warmer palettes were more category A while cooler palettes were more category B.",No,Statistical learning of sorting things into categories with feedback and corrections trials.,No but Fluffy is cute!,FALSE,FALSE
categorize-image,23,7,6,FALSE,42996,p0ant7uvweh,hard,badger,558,a,stimuli/experiment1a/low_B_101.png,low,B,FALSE,/Users/martincz/GitHub/COGS119/group_wi26_nameability/analysis/../data/raw_data/p0ant7uvweh_1772140282964.csv,Yes,Digital art and illustration,"Feeling the ""vibe"" or ""feel"" of the three colors helps differentiate each of them from each other. Also, feeling whether the overall palette feels cool or warm helps. I think warmer palettes were more category A while cooler palettes were more category B.",No,Statistical learning of sorting things into categories with feedback and corrections trials.,No but Fluffy is cute!,FALSE,TRUE
categorize-image,25,8,6,TRUE,45921,p0ant7uvweh,hard,badger,420,b,stimuli/experiment1a/low_B_101.png,low,B,TRUE,/Users/martincz/GitHub/COGS119/group_wi26_nameability/analysis/../data/raw_data/p0ant7uvweh_1772140282964.csv,Yes,Digital art and illustration,"Feeling the ""vibe"" or ""feel"" of the three colors helps differentiate each of them from each other. Also, feeling whether the overall palette feels cool or warm helps. I think warmer palettes were more category A while cooler palettes were more category B.",No,Statistical learning of sorting things into categories with feedback and corrections trials.,No but Fluffy is cute!,FALSE,FALSE
categorize-image,28,9,7,FALSE,49418,p0ant7uvweh,hard,badger,490,a,stimuli/experiment1a/low_A_000.png,low,A,TRUE,/Users/martincz/GitHub/COGS119/group_wi26_nameability/analysis/../data/raw_data/p0ant7uvweh_1772140282964.csv,Yes,Digital art and illustration,"Feeling the ""vibe"" or ""feel"" of the three colors helps differentiate each of them from each other. Also, feeling whether the overall palette feels cool or warm helps. I think warmer palettes were more category A while cooler palettes were more category B.",No,Statistical learning of sorting things into categories with feedback and corrections trials.,No but Fluffy is cute!,FALSE,TRUE
categorize-image,31,10,8,FALSE,52958,p0ant7uvweh,hard,badger,533,b,stimuli/experiment1a/low_A_010.png,low,A,FALSE,/Users/martincz/GitHub/COGS119/group_wi26_nameability/analysis/../data/raw_data/p0ant7uvweh_1772140282964.csv,Yes,Digital art and illustration,"Feeling the ""vibe"" or ""feel"" of the three colors helps differentiate each of them from each other. Also, feeling whether the overall palette feels cool or warm helps. I think warmer palettes were more category A while cooler palettes were more category B.",No,Statistical learning of sorting things into categories with feedback and corrections trials.,No but Fluffy is cute!,FALSE,TRUE
categorize-image,33,11,8,TRUE,55749,p0ant7uvweh,hard,badger,285,a,stimuli/experiment1a/low_A_010.png,low,A,TRUE,/Users/martincz/GitHub/COGS119/group_wi26_nameability/analysis/../data/raw_data/p0ant7uvweh_1772140282964.csv,Yes,Digital art and illustration,"Feeling the ""vibe"" or ""feel"" of the three colors helps differentiate each of them from each other. Also, feeling whether the overall palette feels cool or warm helps. I think warmer palettes were more category A while cooler palettes were more category B.",No,Statistical learning of sorting things into categories with feedback and corrections trials.,No but Fluffy is cute!,FALSE,FALSE
categorize-image,39,12,9,FALSE,66211,p0ant7uvweh,hard,badger,723,a,stimuli/experiment1a/low_A_001.png,low,A,TRUE,/Users/martincz/GitHub/COGS119/group_wi26_nameability/analysis/../data/raw_data/p0ant7uvweh_1772140282964.csv,Yes,Digital art and illustration,"Feeling the ""vibe"" or ""feel"" of the three colors helps differentiate each of them from each other. Also, feeling whether the overall palette feels cool or warm helps. I think warmer palettes were more category A while cooler palettes were more category B.",No,Statistical learning of sorting things into categories with feedback and corrections trials.,No but Fluffy is cute!,FALSE,TRUE
categorize-image,42,13,10,FALSE,69921,p0ant7uvweh,hard,badger,703,a,stimuli/experiment1a/low_A_010.png,low,A,TRUE,/Users/martincz/GitHub/COGS119/group_wi26_nameability/analysis/../data/raw_data/p0ant7uvweh_1772140282964.csv,Yes,Digital art and illustration,"Feeling the ""vibe"" or ""feel"" of the three colors helps differentiate each of them from each other. Also, feeling whether the overall palette feels cool or warm helps. I think warmer palettes were more category A while cooler palettes were more category B.",No,Statistical learning of sorting things into categories with feedback and corrections trials.,No but Fluffy is cute!,FALSE,TRUE
categorize-image,45,14,11,FALSE,73685,p0ant7uvweh,hard,badger,758,b,stimuli/experiment1a/low_B_111.png,low,B,TRUE,/Users/martincz/GitHub/COGS119/group_wi26_nameability/analysis/../data/raw_data/p0ant7uvweh_1772140282964.csv,Yes,Digital art and illustration,"Feeling the ""vibe"" or ""feel"" of the three colors helps differentiate each of them from each other. Also, feeling whether the overall palette feels cool or warm helps. I think warmer palettes were more category A while cooler palettes were more category B.",No,Statistical learning of sorting things into categories with feedback and corrections trials.,No but Fluffy is cute!,FALSE,TRUE
categorize-image,48,15,12,FALSE,77385,p0ant7uvweh,hard,badger,693,a,stimuli/experiment1a/low_B_101.png,low,B,FALSE,/Users/martincz/GitHub/COGS119/group_wi26_nameability/analysis/../data/raw_data/p0ant7uvweh_1772140282964.csv,Yes,Digital art and illustration,"Feeling the ""vibe"" or ""feel"" of the three colors helps differentiate each of them from each other. Also, feeling whether the overall palette feels cool or warm helps. I think warmer palettes were more category A while cooler palettes were more category B.",No,Statistical learning of sorting things into categories with feedback and corrections trials.,No but Fluffy is cute!,FALSE,TRUE
categorize-image,50,16,12,TRUE,80171,p0ant7uvweh,hard,badger,281,b,stimuli/experiment1a/low_B_101.png,low,B,TRUE,/Users/martincz/GitHub/COGS119/group_wi26_nameability/analysis/../data/raw_data/p0ant7uvweh_1772140282964.csv,Yes,Digital art and illustration,"Feeling the ""vibe"" or ""feel"" of the three colors helps differentiate each of them from each other. Also, feeling whether the overall palette feels cool or warm helps. I think warmer palettes were more category A while cooler palettes were more category B.",No,Statistical learning of sorting things into categories with feedback and corrections trials.,No but Fluffy is cute!,FALSE,FALSE
categorize-image,53,17,13,FALSE,83733,p0ant7uvweh,hard,badger,554,a,stimuli/experiment1a/low_A_000.png,low,A,TRUE,/Users/martincz/GitHub/COGS119/group_wi26_nameability/analysis/../data/raw_data/p0ant7uvweh_1772140282964.csv,Yes,Digital art and illustration,"Feeling the ""vibe"" or ""feel"" of the three colors helps differentiate each of them from each other. Also, feeling whether the overall palette feels cool or warm helps. I think warmer palettes were more category A while cooler palettes were more category B.",No,Statistical learning of sorting things into categories with feedback and corrections trials.,No but Fluffy is cute!,FALSE,TRUE
categorize-image,56,18,14,FALSE,87488,p0ant7uvweh,hard,badger,748,b,stimuli/experiment1a/low_B_111.png,low,B,TRUE,/Users/martincz/GitHub/COGS119/group_wi26_nameability/analysis/../data/raw_data/p0ant7uvweh_1772140282964.csv,Yes,Digital art and illustration,"Feeling the ""vibe"" or ""feel"" of the three colors helps differentiate each of them from each other. Also, feeling whether the overall palette feels cool or warm helps. I think warmer palettes were more category A while cooler palettes were more category B.",No,Statistical learning of sorting things into categories with feedback and corrections trials.,No but Fluffy is cute!,FALSE,TRUE
categorize-image,59,19,15,FALSE,91133,p0ant7uvweh,hard,badger,636,a,stimuli/experiment1a/low_A_000.png,low,A,TRUE,/Users/martincz/GitHub/COGS119/group_wi26_nameability/analysis/../data/raw_data/p0ant7uvweh_1772140282964.csv,Yes,Digital art and illustration,"Feeling the ""vibe"" or ""feel"" of the three colors helps differentiate each of them from each other. Also, feeling whether the overall palette feels cool or warm helps. I think warmer palettes were more category A while cooler palettes were more category B.",No,Statistical learning of sorting things into categories with feedback and corrections trials.,No but Fluffy is cute!,FALSE,TRUE
categorize-image,62,20,16,FALSE,94847,p0ant7uvweh,hard,badger,707,a,stimuli/experiment1a/low_B_110.png,low,B,FALSE,/Users/martincz/GitHub/COGS119/group_wi26_nameability/analysis/../data/raw_data/p0ant7uvweh_1772140282964.csv,Yes,Digital art and illustration,"Feeling the ""vibe"" or ""feel"" of the three colors helps differentiate each of them from each other. Also, feeling whether the overall palette feels cool or warm helps. I think warmer palettes were more category A while cooler palettes were more category B.",No,Statistical learning of sorting things into categories with feedback and corrections trials.,No but Fluffy is cute!,FALSE,TRUE
categorize-image,64,21,16,TRUE,97647,p0ant7uvweh,hard,badger,294,b,stimuli/experiment1a/low_B_110.png,low,B,TRUE,/Users/martincz/GitHub/COGS119/group_wi26_nameability/analysis/../data/raw_data/p0ant7uvweh_1772140282964.csv,Yes,Digital art and illustration,"Feeling the ""vibe"" or ""feel"" of the three colors helps differentiate each of them from each other. Also, feeling whether the overall palette feels cool or warm helps. I think warmer palettes were more category A while cooler palettes were more category B.",No,Statistical learning of sorting things into categories with feedback and corrections trials.,No but Fluffy is cute!,FALSE,FALSE
categorize-image,70,22,17,FALSE,106293,p0ant7uvweh,hard,badger,986,a,stimuli/experiment1a/low_B_111.png,low,B,FALSE,/Users/martincz/GitHub/COGS119/group_wi26_nameability/analysis/../data/raw_data/p0ant7uvweh_1772140282964.csv,Yes,Digital art and illustration,"Feeling the ""vibe"" or ""feel"" of the three colors helps differentiate each of them from each other. Also, feeling whether the overall palette feels cool or warm helps. I think warmer palettes were more category A while cooler palettes were more category B.",No,Statistical learning of sorting things into categories with feedback and corrections trials.,No but Fluffy is cute!,FALSE,TRUE
categorize-image,72,23,17,TRUE,109229,p0ant7uvweh,hard,badger,430,b,stimuli/experiment1a/low_B_111.png,low,B,TRUE,/Users/martincz/GitHub/COGS119/group_wi26_nameability/analysis/../data/raw_data/p0ant7uvweh_1772140282964.csv,Yes,Digital art and illustration,"Feeling the ""vibe"" or ""feel"" of the three colors helps differentiate each of them from each other. Also, feeling whether the overall palette feels cool or warm helps. I think warmer palettes were more category A while cooler palettes were more category B.",No,Statistical learning of sorting things into categories with feedback and corrections trials.,No but Fluffy is cute!,FALSE,FALSE
categorize-image,75,24,18,FALSE,112959,p0ant7uvweh,hard,badger,723,a,stimuli/experiment1a/low_A_000.png,low,A,TRUE,/Users/martincz/GitHub/COGS119/group_wi26_nameability/analysis/../data/raw_data/p0ant7uvweh_1772140282964.csv,Yes,Digital art and illustration,"Feeling the ""vibe"" or ""feel"" of the three colors helps differentiate each of them from each other. Also, feeling whether the overall palette feels cool or warm helps. I think warmer palettes were more category A while cooler palettes were more category B.",No,Statistical learning of sorting things into categories with feedback and corrections trials.,No but Fluffy is cute!,FALSE,TRUE
categorize-image,78,25,19,FALSE,117004,p0ant7uvweh,hard,badger,1038,a,stimuli/experiment1a/low_B_101.png,low,B,FALSE,/Users/martincz/GitHub/COGS119/group_wi26_nameability/analysis/../data/raw_data/p0ant7uvweh_1772140282964.csv,Yes,Digital art and illustration,"Feeling the ""vibe"" or ""feel"" of the three colors helps differentiate each of them from each other. Also, feeling whether the overall palette feels cool or warm helps. I think warmer palettes were more category A while cooler palettes were more category B.",No,Statistical learning of sorting things into categories with feedback and corrections trials.,No but Fluffy is cute!,FALSE,TRUE
categorize-image,80,26,19,TRUE,119941,p0ant7uvweh,hard,badger,432,b,stimuli/experiment1a/low_B_101.png,low,B,TRUE,/Users/martincz/GitHub/COGS119/group_wi26_nameability/analysis/../data/raw_data/p0ant7uvweh_1772140282964.csv,Yes,Digital art and illustration,"Feeling the ""vibe"" or ""feel"" of the three colors helps differentiate each of them from each other. Also, feeling whether the overall palette feels cool or warm helps. I think warmer palettes were more category A while cooler palettes were more category B.",No,Statistical learning of sorting things into categories with feedback and corrections trials.,No but Fluffy is cute!,FALSE,FALSE
categorize-image,83,27,20,FALSE,123699,p0ant7uvweh,hard,badger,751,a,stimuli/experiment1a/low_A_010.png,low,A,TRUE,/Users/martincz/GitHub/COGS119/group_wi26_nameability/analysis/../data/raw_data/p0ant7uvweh_1772140282964.csv,Yes,Digital art and illustration,"Feeling the ""vibe"" or ""feel"" of the three colors helps differentiate each of them from each other. Also, feeling whether the overall palette feels cool or warm helps. I think warmer palettes were more category A while cooler palettes were more category B.",No,Statistical learning of sorting things into categories with feedback and corrections trials.,No but Fluffy is cute!,FALSE,TRUE
categorize-image,86,28,21,FALSE,127525,p0ant7uvweh,hard,badger,819,a,stimuli/experiment1a/low_B_110.png,low,B,FALSE,/Users/martincz/GitHub/COGS119/group_wi26_nameability/analysis/../data/raw_data/p0ant7uvweh_1772140282964.csv,Yes,Digital art and illustration,"Feeling the ""vibe"" or ""feel"" of the three colors helps differentiate each of them from each other. Also, feeling whether the overall palette feels cool or warm helps. I think warmer palettes were more category A while cooler palettes were more category B.",No,Statistical learning of sorting things into categories with feedback and corrections trials.,No but Fluffy is cute!,FALSE,TRUE
categorize-image,88,29,21,TRUE,130330,p0ant7uvweh,hard,badger,298,b,stimuli/experiment1a/low_B_110.png,low,B,TRUE,/Users/martincz/GitHub/COGS119/group_wi26_nameability/analysis/../data/raw_data/p0ant7uvweh_1772140282964.csv,Yes,Digital art and illustration,"Feeling the ""vibe"" or ""feel"" of the three colors helps differentiate each of them from each other. Also, feeling whether the overall palette feels cool or warm helps. I think warmer palettes were more category A while cooler palettes were more category B.",No,Statistical learning of sorting things into categories with feedback and corrections trials.,No but Fluffy is cute!,FALSE,FALSE
categorize-image,91,30,22,FALSE,134347,p0ant7uvweh,hard,badger,1009,a,stimuli/experiment1a/low_A_000.png,low,A,TRUE,/Users/martincz/GitHub/COGS119/group_wi26_nameability/analysis/../data/raw_data/p0ant7uvweh_1772140282964.csv,Yes,Digital art and illustration,"Feeling the ""vibe"" or ""feel"" of the three colors helps differentiate each of them from each other. Also, feeling whether the overall palette feels cool or warm helps. I think warmer palettes were more category A while cooler palettes were more category B.",No,Statistical learning of sorting things into categories with feedback and corrections trials.,No but Fluffy is cute!,FALSE,TRUE
categorize-image,94,31,23,FALSE,138165,p0ant7uvweh,hard,badger,811,a,stimuli/experiment1a/low_A_001.png,low,A,TRUE,/Users/martincz/GitHub/COGS119/group_wi26_nameability/analysis/../data/raw_data/p0ant7uvweh_1772140282964.csv,Yes,Digital art and illustration,"Feeling the ""vibe"" or ""feel"" of the three colors helps differentiate each of them from each other. Also, feeling whether the overall palette feels cool or warm helps. I think warmer palettes were more category A while cooler palettes were more category B.",No,Statistical learning of sorting things into categories with feedback and corrections trials.,No but Fluffy is cute!,FALSE,TRUE
categorize-image,97,32,24,FALSE,141938,p0ant7uvweh,hard,badger,765,b,stimuli/experiment1a/low_B_111.png,low,B,TRUE,/Users/martincz/GitHub/COGS119/group_wi26_nameability/analysis/../data/raw_data/p0ant7uvweh_1772140282964.csv,Yes,Digital art and illustration,"Feeling the ""vibe"" or ""feel"" of the three colors helps differentiate each of them from each other. Also, feeling whether the overall palette feels cool or warm helps. I think warmer palettes were more category A while cooler palettes were more category B.",No,Statistical learning of sorting things into categories with feedback and corrections trials.,No but Fluffy is cute!,FALSE,TRUE
categorize-image,103,33,25,FALSE,149176,p0ant7uvweh,hard,badger,879,b,stimuli/experiment1a/low_B_110.png,low,B,TRUE,/Users/martincz/GitHub/COGS119/group_wi26_nameability/analysis/../data/raw_data/p0ant7uvweh_1772140282964.csv,Yes,Digital art and illustration,"Feeling the ""vibe"" or ""feel"" of the three colors helps differentiate each of them from each other. Also, feeling whether the overall palette feels cool or warm helps. I think warmer palettes were more category A while cooler palettes were more category B.",No,Statistical learning of sorting things into categories with feedback and corrections trials.,No but Fluffy is cute!,FALSE,TRUE
categorize-image,106,34,26,FALSE,152914,p0ant7uvweh,hard,badger,730,a,stimuli/experiment1a/low_A_010.png,low,A,TRUE,/Users/martincz/GitHub/COGS119/group_wi26_nameability/analysis/../data/raw_data/p0ant7uvweh_1772140282964.csv,Yes,Digital art and illustration,"Feeling the ""vibe"" or ""feel"" of the three colors helps differentiate each of them from each other. Also, feeling whether the overall palette feels cool or warm helps. I think warmer palettes were more category A while cooler palettes were more category B.",No,Statistical learning of sorting things into categories with feedback and corrections trials.,No but Fluffy is cute!,FALSE,TRUE
categorize-image,109,35,27,FALSE,156723,p0ant7uvweh,hard,badger,801,a,stimuli/experiment1a/low_A_000.png,low,A,TRUE,/Users/martincz/GitHub/COGS119/group_wi26_nameability/analysis/../data/raw_data/p0ant7uvweh_1772140282964.csv,Yes,Digital art and illustration,"Feeling the ""vibe"" or ""feel"" of the three colors helps differentiate each of them from each other. Also, feeling whether the overall palette feels cool or warm helps. I think warmer palettes were more category A while cooler palettes were more category B.",No,Statistical learning of sorting things into categories with feedback and corrections trials.,No but Fluffy is cute!,FALSE,TRUE
categorize-image,112,36,28,FALSE,160440,p0ant7uvweh,hard,badger,711,b,stimuli/experiment1a/low_B_101.png,low,B,TRUE,/Users/martincz/GitHub/COGS119/group_wi26_nameability/analysis/../data/raw_data/p0ant7uvweh_1772140282964.csv,Yes,Digital art and illustration,"Feeling the ""vibe"" or ""feel"" of the three colors helps differentiate each of them from each other. Also, feeling whether the overall palette feels cool or warm helps. I think warmer palettes were more category A while cooler palettes were more category B.",No,Statistical learning of sorting things into categories with feedback and corrections trials.,No but Fluffy is cute!,FALSE,TRUE
categorize-image,115,37,29,FALSE,163951,p0ant7uvweh,hard,badger,504,a,stimuli/experiment1a/low_A_000.png,low,A,TRUE,/Users/martincz/GitHub/COGS119/group_wi26_nameability/analysis/../data/raw_data/p0ant7uvweh_1772140282964.csv,Yes,Digital art and illustration,"Feeling the ""vibe"" or ""feel"" of the three colors helps differentiate each of them from each other. Also, feeling whether the overall palette feels cool or warm helps. I think warmer palettes were more category A while cooler palettes were more category B.",No,Statistical learning of sorting things into categories with feedback and corrections trials.,No but Fluffy is cute!,FALSE,TRUE
categorize-image,118,38,30,FALSE,167451,p0ant7uvweh,hard,badger,493,a,stimuli/experiment1a/low_A_001.png,low,A,TRUE,/Users/martincz/GitHub/COGS119/group_wi26_nameability/analysis/../data/raw_data/p0ant7uvweh_1772140282964.csv,Yes,Digital art and illustration,"Feeling the ""vibe"" or ""feel"" of the three colors helps differentiate each of them from each other. Also, feeling whether the overall palette feels cool or warm helps. I think warmer palettes were more category A while cooler palettes were more category B.",No,Statistical learning of sorting things into categories with feedback and corrections trials.,No but Fluffy is cute!,FALSE,TRUE
categorize-image,121,39,31,FALSE,171120,p0ant7uvweh,hard,badger,662,b,stimuli/experiment1a/low_B_111.png,low,B,TRUE,/Users/martincz/GitHub/COGS119/group_wi26_nameability/analysis/../data/raw_data/p0ant7uvweh_1772140282964.csv,Yes,Digital art and illustration,"Feeling the ""vibe"" or ""feel"" of the three colors helps differentiate each of them from each other. Also, feeling whether the overall palette feels cool or warm helps. I think warmer palettes were more category A while cooler palettes were more category B.",No,Statistical learning of sorting things into categories with feedback and corrections trials.,No but Fluffy is cute!,FALSE,TRUE
categorize-image,124,40,32,FALSE,174977,p0ant7uvweh,hard,badger,849,a,stimuli/experiment1a/low_B_111.png,low,B,FALSE,/Users/martincz/GitHub/COGS119/group_wi26_nameability/analysis/../data/raw_data/p0ant7uvweh_1772140282964.csv,Yes,Digital art and illustration,"Feeling the ""vibe"" or ""feel"" of the three colors helps differentiate each of them from each other. Also, feeling whether the overall palette feels cool or warm helps. I think warmer palettes were more category A while cooler palettes were more category B.",No,Statistical learning of sorting things into categories with feedback and corrections trials.,No but Fluffy is cute!,FALSE,TRUE
categorize-image,126,41,32,TRUE,177820,p0ant7uvweh,hard,badger,338,b,stimuli/experiment1a/low_B_111.png,low,B,TRUE,/Users/martincz/GitHub/COGS119/group_wi26_nameability/analysis/../data/raw_data/p0ant7uvweh_1772140282964.csv,Yes,Digital art and illustration,"Feeling the ""vibe"" or ""feel"" of the three colors helps differentiate each of them from each other. Also, feeling whether the overall palette feels cool or warm helps. I think warmer palettes were more category A while cooler palettes were more category B.",No,Statistical learning of sorting things into categories with feedback and corrections trials.,No but Fluffy is cute!,FALSE,FALSE
categorize-image,132,42,33,FALSE,184668,p0ant7uvweh,hard,badger,896,b,stimuli/experiment1a/low_B_110.png,low,B,TRUE,/Users/martincz/GitHub/COGS119/group_wi26_nameability/analysis/../data/raw_data/p0ant7uvweh_1772140282964.csv,Yes,Digital art and illustration,"Feeling the ""vibe"" or ""feel"" of the three colors helps differentiate each of them from each other. Also, feeling whether the overall palette feels cool or warm helps. I think warmer palettes were more category A while cooler palettes were more category B.",No,Statistical learning of sorting things into categories with feedback and corrections trials.,No but Fluffy is cute!,FALSE,TRUE
categorize-image,135,43,34,FALSE,188396,p0ant7uvweh,hard,badger,722,a,stimuli/experiment1a/low_A_000.png,low,A,TRUE,/Users/martincz/GitHub/COGS119/group_wi26_nameability/analysis/../data/raw_data/p0ant7uvweh_1772140282964.csv,Yes,Digital art and illustration,"Feeling the ""vibe"" or ""feel"" of the three colors helps differentiate each of them from each other. Also, feeling whether the overall palette feels cool or warm helps. I think warmer palettes were more category A while cooler palettes were more category B.",No,Statistical learning of sorting things into categories with feedback and corrections trials.,No but Fluffy is cute!,FALSE,TRUE
categorize-image,138,44,35,FALSE,192050,p0ant7uvweh,hard,badger,647,b,stimuli/experiment1a/low_B_111.png,low,B,TRUE,/Users/martincz/GitHub/COGS119/group_wi26_nameability/analysis/../data/raw_data/p0ant7uvweh_1772140282964.csv,Yes,Digital art and illustration,"Feeling the ""vibe"" or ""feel"" of the three colors helps differentiate each of them from each other. Also, feeling whether the overall palette feels cool or warm helps. I think warmer palettes were more category A while cooler palettes were more category B.",No,Statistical learning of sorting things into categories with feedback and corrections trials.,No but Fluffy is cute!,FALSE,TRUE
categorize-image,141,45,36,FALSE,195840,p0ant7uvweh,hard,badger,783,b,stimuli/experiment1a/low_B_101.png,low,B,TRUE,/Users/martincz/GitHub/COGS119/group_wi26_nameability/analysis/../data/raw_data/p0ant7uvweh_1772140282964.csv,Yes,Digital art and illustration,"Feeling the ""vibe"" or ""feel"" of the three colors helps differentiate each of them from each other. Also, feeling whether the overall palette feels cool or warm helps. I think warmer palettes were more category A while cooler palettes were more category B.",No,Statistical learning of sorting things into categories with feedback and corrections trials.,No but Fluffy is cute!,FALSE,TRUE
categorize-image,144,46,37,FALSE,199437,p0ant7uvweh,hard,badger,589,b,stimuli/experiment1a/low_A_001.png,low,A,FALSE,/Users/martincz/GitHub/COGS119/group_wi26_nameability/analysis/../data/raw_data/p0ant7uvweh_1772140282964.csv,Yes,Digital art and illustration,"Feeling the ""vibe"" or ""feel"" of the three colors helps differentiate each of them from each other. Also, feeling whether the overall palette feels cool or warm helps. I think warmer palettes were more category A while cooler palettes were more category B.",No,Statistical learning of sorting things into categories with feedback and corrections trials.,No but Fluffy is cute!,FALSE,TRUE
categorize-image,146,47,37,TRUE,202233,p0ant7uvweh,hard,badger,291,a,stimuli/experiment1a/low_A_001.png,low,A,TRUE,/Users/martincz/GitHub/COGS119/group_wi26_nameability/analysis/../data/raw_data/p0ant7uvweh_1772140282964.csv,Yes,Digital art and illustration,"Feeling the ""vibe"" or ""feel"" of the three colors helps differentiate each of them from each other. Also, feeling whether the overall palette feels cool or warm helps. I think warmer palettes were more category A while cooler palettes were more category B.",No,Statistical learning of sorting things into categories with feedback and corrections trials.,No but Fluffy is cute!,FALSE,FALSE
categorize-image,149,48,38,FALSE,206080,p0ant7uvweh,hard,badger,840,a,stimuli/experiment1a/low_A_010.png,low,A,TRUE,/Users/martincz/GitHub/COGS119/group_wi26_nameability/analysis/../data/raw_data/p0ant7uvweh_1772140282964.csv,Yes,Digital art and illustration,"Feeling the ""vibe"" or ""feel"" of the three colors helps differentiate each of them from each other. Also, feeling whether the overall palette feels cool or warm helps. I think warmer palettes were more category A while cooler palettes were more category B.",No,Statistical learning of sorting things into categories with feedback and corrections trials.,No but Fluffy is cute!,FALSE,TRUE
categorize-image,152,49,39,FALSE,209689,p0ant7uvweh,hard,badger,602,b,stimuli/experiment1a/low_B_111.png,low,B,TRUE,/Users/martincz/GitHub/COGS119/group_wi26_nameability/analysis/../data/raw_data/p0ant7uvweh_1772140282964.csv,Yes,Digital art and illustration,"Feeling the ""vibe"" or ""feel"" of the three colors helps differentiate each of them from each other. Also, feeling whether the overall palette feels cool or warm helps. I think warmer palettes were more category A while cooler palettes were more category B.",No,Statistical learning of sorting things into categories with feedback and corrections trials.,No but Fluffy is cute!,FALSE,TRUE
categorize-image,155,50,40,FALSE,213370,p0ant7uvweh,hard,badger,673,a,stimuli/experiment1a/low_A_000.png,low,A,TRUE,/Users/martincz/GitHub/COGS119/group_wi26_nameability/analysis/../data/raw_data/p0ant7uvweh_1772140282964.csv,Yes,Digital art and illustration,"Feeling the ""vibe"" or ""feel"" of the three colors helps differentiate each of them from each other. Also, feeling whether the overall palette feels cool or warm helps. I think warmer palettes were more category A while cooler palettes were more category B.",No,Statistical learning of sorting things into categories with feedback and corrections trials.,No but Fluffy is cute!,FALSE,TRUE
categorize-image,161,51,41,FALSE,220090,p0ant7uvweh,hard,badger,843,b,stimuli/experiment1a/low_B_101.png,low,B,TRUE,/Users/martincz/GitHub/COGS119/group_wi26_nameability/analysis/../data/raw_data/p0ant7uvweh_1772140282964.csv,Yes,Digital art and illustration,"Feeling the ""vibe"" or ""feel"" of the three colors helps differentiate each of them from each other. Also, feeling whether the overall palette feels cool or warm helps. I think warmer palettes were more category A while cooler palettes were more category B.",No,Statistical learning of sorting things into categories with feedback and corrections trials.,No but Fluffy is cute!,FALSE,TRUE
categorize-image,164,52,42,FALSE,223957,p0ant7uvweh,hard,badger,860,b,stimuli/experiment1a/low_B_111.png,low,B,TRUE,/Users/martincz/GitHub/COGS119/group_wi26_nameability/analysis/../data/raw_data/p0ant7uvweh_1772140282964.csv,Yes,Digital art and illustration,"Feeling the ""vibe"" or ""feel"" of the three colors helps differentiate each of them from each other. Also, feeling whether the overall palette feels cool or warm helps. I think warmer palettes were more category A while cooler palettes were more category B.",No,Statistical learning of sorting things into categories with feedback and corrections trials.,No but Fluffy is cute!,FALSE,TRUE
categorize-image,167,53,43,FALSE,227894,p0ant7uvweh,hard,badger,929,b,stimuli/experiment1a/low_A_010.png,low,A,FALSE,/Users/martincz/GitHub/COGS119/group_wi26_nameability/analysis/../data/raw_data/p0ant7uvweh_1772140282964.csv,Yes,Digital art and illustration,"Feeling the ""vibe"" or ""feel"" of the three colors helps differentiate each of them from each other. Also, feeling whether the overall palette feels cool or warm helps. I think warmer palettes were more category A while cooler palettes were more category B.",No,Statistical learning of sorting things into categories with feedback and corrections trials.,No but Fluffy is cute!,FALSE,TRUE
categorize-image,169,54,43,TRUE,230678,p0ant7uvweh,hard,badger,278,a,stimuli/experiment1a/low_A_010.png,low,A,TRUE,/Users/martincz/GitHub/COGS119/group_wi26_nameability/analysis/../data/raw_data/p0ant7uvweh_1772140282964.csv,Yes,Digital art and illustration,"Feeling the ""vibe"" or ""feel"" of the three colors helps differentiate each of them from each other. Also, feeling whether the overall palette feels cool or warm helps. I think warmer palettes were more category A while cooler palettes were more category B.",No,Statistical learning of sorting things into categories with feedback and corrections trials.,No but Fluffy is cute!,FALSE,FALSE
categorize-image,172,55,44,FALSE,234449,p0ant7uvweh,hard,badger,764,a,stimuli/experiment1a/low_A_001.png,low,A,TRUE,/Users/martincz/GitHub/COGS119/group_wi26_nameability/analysis/../data/raw_data/p0ant7uvweh_1772140282964.csv,Yes,Digital art and illustration,"Feeling the ""vibe"" or ""feel"" of the three colors helps differentiate each of them from each other. Also, feeling whether the overall palette feels cool or warm helps. I think warmer palettes were more category A while cooler palettes were more category B.",No,Statistical learning of sorting things into categories with feedback and corrections trials.,No but Fluffy is cute!,FALSE,TRUE
categorize-image,175,56,45,FALSE,238071,p0ant7uvweh,hard,badger,615,a,stimuli/experiment1a/low_A_000.png,low,A,TRUE,/Users/martincz/GitHub/COGS119/group_wi26_nameability/analysis/../data/raw_data/p0ant7uvweh_1772140282964.csv,Yes,Digital art and illustration,"Feeling the ""vibe"" or ""feel"" of the three colors helps differentiate each of them from each other. Also, feeling whether the overall palette feels cool or warm helps. I think warmer palettes were more category A while cooler palettes were more category B.",No,Statistical learning of sorting things into categories with feedback and corrections trials.,No but Fluffy is cute!,FALSE,TRUE
categorize-image,178,57,46,FALSE,241647,p0ant7uvweh,hard,badger,569,b,stimuli/experiment1a/low_B_111.png,low,B,TRUE,/Users/martincz/GitHub/COGS119/group_wi26_nameability/analysis/../data/raw_data/p0ant7uvweh_1772140282964.csv,Yes,Digital art and illustration,"Feeling the ""vibe"" or ""feel"" of the three colors helps differentiate each of them from each other. Also, feeling whether the overall palette feels cool or warm helps. I think warmer palettes were more category A while cooler palettes were more category B.",No,Statistical learning of sorting things into categories with feedback and corrections trials.,No but Fluffy is cute!,FALSE,TRUE
categorize-image,181,58,47,FALSE,245689,p0ant7uvweh,hard,badger,1034,b,stimuli/experiment1a/low_B_110.png,low,B,TRUE,/Users/martincz/GitHub/COGS119/group_wi26_nameability/analysis/../data/raw_data/p0ant7uvweh_1772140282964.csv,Yes,Digital art and illustration,"Feeling the ""vibe"" or ""feel"" of the three colors helps differentiate each of them from each other. Also, feeling whether the overall palette feels cool or warm helps. I think warmer palettes were more category A while cooler palettes were more category B.",No,Statistical learning of sorting things into categories with feedback and corrections trials.,No but Fluffy is cute!,FALSE,TRUE
categorize-image,184,59,48,FALSE,249287,p0ant7uvweh,hard,badger,590,a,stimuli/experiment1a/low_A_000.png,low,A,TRUE,/Users/martincz/GitHub/COGS119/group_wi26_nameability/analysis/../data/raw_data/p0ant7uvweh_1772140282964.csv,Yes,Digital art and illustration,"Feeling the ""vibe"" or ""feel"" of the three colors helps differentiate each of them from each other. Also, feeling whether the overall palette feels cool or warm helps. I think warmer palettes were more category A while cooler palettes were more category B.",No,Statistical learning of sorting things into categories with feedback and corrections trials.,No but Fluffy is cute!,FALSE,TRUE
categorize-image,6,1,1,FALSE,702538,p1902plwm5c,hard2,lemur,5220,a,stimuli/experiment1a/low_B_111.png,low,A,TRUE,/Users/martincz/GitHub/COGS119/group_wi26_nameability/analysis/../data/raw_data/p1902plwm5c_1772139713639.csv,yes,no,"if it was orange, it was usually B. but if there was lilac, then it was always A. so if both orange and lilac came up, it was A. other colors were harder to understand.",no,I do not have any idea. maybe about chance? ,"maybe an explanation on what this experiment was about? 
",FALSE,TRUE
categorize-image,9,2,2,FALSE,706611,p1902plwm5c,hard2,lemur,1061,a,stimuli/experiment1a/low_B_101.png,low,A,TRUE,/Users/martincz/GitHub/COGS119/group_wi26_nameability/analysis/../data/raw_data/p1902plwm5c_1772139713639.csv,yes,no,"if it was orange, it was usually B. but if there was lilac, then it was always A. so if both orange and lilac came up, it was A. other colors were harder to understand.",no,I do not have any idea. maybe about chance? ,"maybe an explanation on what this experiment was about? 
",FALSE,TRUE
categorize-image,12,3,3,FALSE,710691,p1902plwm5c,hard2,lemur,1072,b,stimuli/experiment1a/low_A_000.png,low,B,TRUE,/Users/martincz/GitHub/COGS119/group_wi26_nameability/analysis/../data/raw_data/p1902plwm5c_1772139713639.csv,yes,no,"if it was orange, it was usually B. but if there was lilac, then it was always A. so if both orange and lilac came up, it was A. other colors were harder to understand.",no,I do not have any idea. maybe about chance? ,"maybe an explanation on what this experiment was about? 
",FALSE,TRUE
categorize-image,15,4,4,FALSE,715362,p1902plwm5c,hard2,lemur,1661,b,stimuli/experiment1a/low_B_110.png,low,A,FALSE,/Users/martincz/GitHub/COGS119/group_wi26_nameability/analysis/../data/raw_data/p1902plwm5c_1772139713639.csv,yes,no,"if it was orange, it was usually B. but if there was lilac, then it was always A. so if both orange and lilac came up, it was A. other colors were harder to understand.",no,I do not have any idea. maybe about chance? ,"maybe an explanation on what this experiment was about? 
",FALSE,TRUE
categorize-image,17,5,4,TRUE,718821,p1902plwm5c,hard2,lemur,954,a,stimuli/experiment1a/low_B_110.png,low,A,TRUE,/Users/martincz/GitHub/COGS119/group_wi26_nameability/analysis/../data/raw_data/p1902plwm5c_1772139713639.csv,yes,no,"if it was orange, it was usually B. but if there was lilac, then it was always A. so if both orange and lilac came up, it was A. other colors were harder to understand.",no,I do not have any idea. maybe about chance? ,"maybe an explanation on what this experiment was about? 
",FALSE,FALSE
categorize-image,20,6,5,FALSE,722910,p1902plwm5c,hard2,lemur,1080,a,stimuli/experiment1a/low_A_010.png,low,B,FALSE,/Users/martincz/GitHub/COGS119/group_wi26_nameability/analysis/../data/raw_data/p1902plwm5c_1772139713639.csv,yes,no,"if it was orange, it was usually B. but if there was lilac, then it was always A. so if both orange and lilac came up, it was A. other colors were harder to understand.",no,I do not have any idea. maybe about chance? ,"maybe an explanation on what this experiment was about? 
",FALSE,TRUE
categorize-image,22,7,5,TRUE,726102,p1902plwm5c,hard2,lemur,685,b,stimuli/experiment1a/low_A_010.png,low,B,TRUE,/Users/martincz/GitHub/COGS119/group_wi26_nameability/analysis/../data/raw_data/p1902plwm5c_1772139713639.csv,yes,no,"if it was orange, it was usually B. but if there was lilac, then it was always A. so if both orange and lilac came up, it was A. other colors were harder to understand.",no,I do not have any idea. maybe about chance? ,"maybe an explanation on what this experiment was about? 
",FALSE,FALSE
categorize-image,25,8,6,FALSE,730703,p1902plwm5c,hard2,lemur,1594,a,stimuli/experiment1a/low_B_111.png,low,A,TRUE,/Users/martincz/GitHub/COGS119/group_wi26_nameability/analysis/../data/raw_data/p1902plwm5c_1772139713639.csv,yes,no,"if it was orange, it was usually B. but if there was lilac, then it was always A. so if both orange and lilac came up, it was A. other colors were harder to understand.",no,I do not have any idea. maybe about chance? ,"maybe an explanation on what this experiment was about? 
",FALSE,TRUE
categorize-image,28,9,7,FALSE,734572,p1902plwm5c,hard2,lemur,860,b,stimuli/experiment1a/low_A_001.png,low,B,TRUE,/Users/martincz/GitHub/COGS119/group_wi26_nameability/analysis/../data/raw_data/p1902plwm5c_1772139713639.csv,yes,no,"if it was orange, it was usually B. but if there was lilac, then it was always A. so if both orange and lilac came up, it was A. other colors were harder to understand.",no,I do not have any idea. maybe about chance? ,"maybe an explanation on what this experiment was about? 
",FALSE,TRUE
categorize-image,31,10,8,FALSE,738437,p1902plwm5c,hard2,lemur,855,b,stimuli/experiment1a/low_A_000.png,low,B,TRUE,/Users/martincz/GitHub/COGS119/group_wi26_nameability/analysis/../data/raw_data/p1902plwm5c_1772139713639.csv,yes,no,"if it was orange, it was usually B. but if there was lilac, then it was always A. so if both orange and lilac came up, it was A. other colors were harder to understand.",no,I do not have any idea. maybe about chance? ,"maybe an explanation on what this experiment was about? 
",FALSE,TRUE
categorize-image,37,11,9,FALSE,747304,p1902plwm5c,hard2,lemur,1235,a,stimuli/experiment1a/low_A_010.png,low,B,FALSE,/Users/martincz/GitHub/COGS119/group_wi26_nameability/analysis/../data/raw_data/p1902plwm5c_1772139713639.csv,yes,no,"if it was orange, it was usually B. but if there was lilac, then it was always A. so if both orange and lilac came up, it was A. other colors were harder to understand.",no,I do not have any idea. maybe about chance? ,"maybe an explanation on what this experiment was about? 
",FALSE,TRUE
categorize-image,39,12,9,TRUE,750283,p1902plwm5c,hard2,lemur,472,b,stimuli/experiment1a/low_A_010.png,low,B,TRUE,/Users/martincz/GitHub/COGS119/group_wi26_nameability/analysis/../data/raw_data/p1902plwm5c_1772139713639.csv,yes,no,"if it was orange, it was usually B. but if there was lilac, then it was always A. so if both orange and lilac came up, it was A. other colors were harder to understand.",no,I do not have any idea. maybe about chance? ,"maybe an explanation on what this experiment was about? 
",FALSE,FALSE
categorize-image,42,13,10,FALSE,754129,p1902plwm5c,hard2,lemur,837,b,stimuli/experiment1a/low_A_000.png,low,B,TRUE,/Users/martincz/GitHub/COGS119/group_wi26_nameability/analysis/../data/raw_data/p1902plwm5c_1772139713639.csv,yes,no,"if it was orange, it was usually B. but if there was lilac, then it was always A. so if both orange and lilac came up, it was A. other colors were harder to understand.",no,I do not have any idea. maybe about chance? ,"maybe an explanation on what this experiment was about? 
",FALSE,TRUE
categorize-image,45,14,11,FALSE,758068,p1902plwm5c,hard2,lemur,931,a,stimuli/experiment1a/low_B_111.png,low,A,TRUE,/Users/martincz/GitHub/COGS119/group_wi26_nameability/analysis/../data/raw_data/p1902plwm5c_1772139713639.csv,yes,no,"if it was orange, it was usually B. but if there was lilac, then it was always A. so if both orange and lilac came up, it was A. other colors were harder to understand.",no,I do not have any idea. maybe about chance? ,"maybe an explanation on what this experiment was about? 
",FALSE,TRUE
categorize-image,48,15,12,FALSE,763196,p1902plwm5c,hard2,lemur,2120,b,stimuli/experiment1a/low_B_110.png,low,A,FALSE,/Users/martincz/GitHub/COGS119/group_wi26_nameability/analysis/../data/raw_data/p1902plwm5c_1772139713639.csv,yes,no,"if it was orange, it was usually B. but if there was lilac, then it was always A. so if both orange and lilac came up, it was A. other colors were harder to understand.",no,I do not have any idea. maybe about chance? ,"maybe an explanation on what this experiment was about? 
",FALSE,TRUE
categorize-image,50,16,12,TRUE,766025,p1902plwm5c,hard2,lemur,322,a,stimuli/experiment1a/low_B_110.png,low,A,TRUE,/Users/martincz/GitHub/COGS119/group_wi26_nameability/analysis/../data/raw_data/p1902plwm5c_1772139713639.csv,yes,no,"if it was orange, it was usually B. but if there was lilac, then it was always A. so if both orange and lilac came up, it was A. other colors were harder to understand.",no,I do not have any idea. maybe about chance? ,"maybe an explanation on what this experiment was about? 
",FALSE,FALSE
categorize-image,53,17,13,FALSE,769795,p1902plwm5c,hard2,lemur,762,b,stimuli/experiment1a/low_A_000.png,low,B,TRUE,/Users/martincz/GitHub/COGS119/group_wi26_nameability/analysis/../data/raw_data/p1902plwm5c_1772139713639.csv,yes,no,"if it was orange, it was usually B. but if there was lilac, then it was always A. so if both orange and lilac came up, it was A. other colors were harder to understand.",no,I do not have any idea. maybe about chance? ,"maybe an explanation on what this experiment was about? 
",FALSE,TRUE
categorize-image,56,18,14,FALSE,773531,p1902plwm5c,hard2,lemur,728,a,stimuli/experiment1a/low_B_111.png,low,A,TRUE,/Users/martincz/GitHub/COGS119/group_wi26_nameability/analysis/../data/raw_data/p1902plwm5c_1772139713639.csv,yes,no,"if it was orange, it was usually B. but if there was lilac, then it was always A. so if both orange and lilac came up, it was A. other colors were harder to understand.",no,I do not have any idea. maybe about chance? ,"maybe an explanation on what this experiment was about? 
",FALSE,TRUE
categorize-image,59,19,15,FALSE,777139,p1902plwm5c,hard2,lemur,600,b,stimuli/experiment1a/low_A_001.png,low,B,TRUE,/Users/martincz/GitHub/COGS119/group_wi26_nameability/analysis/../data/raw_data/p1902plwm5c_1772139713639.csv,yes,no,"if it was orange, it was usually B. but if there was lilac, then it was always A. so if both orange and lilac came up, it was A. other colors were harder to understand.",no,I do not have any idea. maybe about chance? ,"maybe an explanation on what this experiment was about? 
",FALSE,TRUE
categorize-image,62,20,16,FALSE,782236,p1902plwm5c,hard2,lemur,2090,a,stimuli/experiment1a/low_B_101.png,low,A,TRUE,/Users/martincz/GitHub/COGS119/group_wi26_nameability/analysis/../data/raw_data/p1902plwm5c_1772139713639.csv,yes,no,"if it was orange, it was usually B. but if there was lilac, then it was always A. so if both orange and lilac came up, it was A. other colors were harder to understand.",no,I do not have any idea. maybe about chance? ,"maybe an explanation on what this experiment was about? 
",FALSE,TRUE
categorize-image,68,21,17,FALSE,795029,p1902plwm5c,hard2,lemur,2086,b,stimuli/experiment1a/low_A_000.png,low,B,TRUE,/Users/martincz/GitHub/COGS119/group_wi26_nameability/analysis/../data/raw_data/p1902plwm5c_1772139713639.csv,yes,no,"if it was orange, it was usually B. but if there was lilac, then it was always A. so if both orange and lilac came up, it was A. other colors were harder to understand.",no,I do not have any idea. maybe about chance? ,"maybe an explanation on what this experiment was about? 
",FALSE,TRUE
categorize-image,71,22,18,FALSE,798592,p1902plwm5c,hard2,lemur,553,a,stimuli/experiment1a/low_B_101.png,low,A,TRUE,/Users/martincz/GitHub/COGS119/group_wi26_nameability/analysis/../data/raw_data/p1902plwm5c_1772139713639.csv,yes,no,"if it was orange, it was usually B. but if there was lilac, then it was always A. so if both orange and lilac came up, it was A. other colors were harder to understand.",no,I do not have any idea. maybe about chance? ,"maybe an explanation on what this experiment was about? 
",FALSE,TRUE
categorize-image,74,23,19,FALSE,802366,p1902plwm5c,hard2,lemur,766,a,stimuli/experiment1a/low_B_111.png,low,A,TRUE,/Users/martincz/GitHub/COGS119/group_wi26_nameability/analysis/../data/raw_data/p1902plwm5c_1772139713639.csv,yes,no,"if it was orange, it was usually B. but if there was lilac, then it was always A. so if both orange and lilac came up, it was A. other colors were harder to understand.",no,I do not have any idea. maybe about chance? ,"maybe an explanation on what this experiment was about? 
",FALSE,TRUE
categorize-image,77,24,20,FALSE,806443,p1902plwm5c,hard2,lemur,1069,a,stimuli/experiment1a/low_B_110.png,low,A,TRUE,/Users/martincz/GitHub/COGS119/group_wi26_nameability/analysis/../data/raw_data/p1902plwm5c_1772139713639.csv,yes,no,"if it was orange, it was usually B. but if there was lilac, then it was always A. so if both orange and lilac came up, it was A. other colors were harder to understand.",no,I do not have any idea. maybe about chance? ,"maybe an explanation on what this experiment was about? 
",FALSE,TRUE
categorize-image,80,25,21,FALSE,810072,p1902plwm5c,hard2,lemur,620,b,stimuli/experiment1a/low_A_001.png,low,B,TRUE,/Users/martincz/GitHub/COGS119/group_wi26_nameability/analysis/../data/raw_data/p1902plwm5c_1772139713639.csv,yes,no,"if it was orange, it was usually B. but if there was lilac, then it was always A. so if both orange and lilac came up, it was A. other colors were harder to understand.",no,I do not have any idea. maybe about chance? ,"maybe an explanation on what this experiment was about? 
",FALSE,TRUE
categorize-image,83,26,22,FALSE,813633,p1902plwm5c,hard2,lemur,552,a,stimuli/experiment1a/low_B_111.png,low,A,TRUE,/Users/martincz/GitHub/COGS119/group_wi26_nameability/analysis/../data/raw_data/p1902plwm5c_1772139713639.csv,yes,no,"if it was orange, it was usually B. but if there was lilac, then it was always A. so if both orange and lilac came up, it was A. other colors were harder to understand.",no,I do not have any idea. maybe about chance? ,"maybe an explanation on what this experiment was about? 
",FALSE,TRUE
categorize-image,86,27,23,FALSE,817134,p1902plwm5c,hard2,lemur,495,a,stimuli/experiment1a/low_A_010.png,low,B,FALSE,/Users/martincz/GitHub/COGS119/group_wi26_nameability/analysis/../data/raw_data/p1902plwm5c_1772139713639.csv,yes,no,"if it was orange, it was usually B. but if there was lilac, then it was always A. so if both orange and lilac came up, it was A. other colors were harder to understand.",no,I do not have any idea. maybe about chance? ,"maybe an explanation on what this experiment was about? 
",FALSE,TRUE
categorize-image,88,28,23,TRUE,819895,p1902plwm5c,hard2,lemur,258,b,stimuli/experiment1a/low_A_010.png,low,B,TRUE,/Users/martincz/GitHub/COGS119/group_wi26_nameability/analysis/../data/raw_data/p1902plwm5c_1772139713639.csv,yes,no,"if it was orange, it was usually B. but if there was lilac, then it was always A. so if both orange and lilac came up, it was A. other colors were harder to understand.",no,I do not have any idea. maybe about chance? ,"maybe an explanation on what this experiment was about? 
",FALSE,FALSE
categorize-image,91,29,24,FALSE,823524,p1902plwm5c,hard2,lemur,620,a,stimuli/experiment1a/low_A_000.png,low,B,FALSE,/Users/martincz/GitHub/COGS119/group_wi26_nameability/analysis/../data/raw_data/p1902plwm5c_1772139713639.csv,yes,no,"if it was orange, it was usually B. but if there was lilac, then it was always A. so if both orange and lilac came up, it was A. other colors were harder to understand.",no,I do not have any idea. maybe about chance? ,"maybe an explanation on what this experiment was about? 
",FALSE,TRUE
categorize-image,93,30,24,TRUE,826285,p1902plwm5c,hard2,lemur,254,b,stimuli/experiment1a/low_A_000.png,low,B,TRUE,/Users/martincz/GitHub/COGS119/group_wi26_nameability/analysis/../data/raw_data/p1902plwm5c_1772139713639.csv,yes,no,"if it was orange, it was usually B. but if there was lilac, then it was always A. so if both orange and lilac came up, it was A. other colors were harder to understand.",no,I do not have any idea. maybe about chance? ,"maybe an explanation on what this experiment was about? 
",FALSE,FALSE
categorize-image,99,31,25,FALSE,836488,p1902plwm5c,hard2,lemur,3458,a,stimuli/experiment1a/low_A_010.png,low,B,FALSE,/Users/martincz/GitHub/COGS119/group_wi26_nameability/analysis/../data/raw_data/p1902plwm5c_1772139713639.csv,yes,no,"if it was orange, it was usually B. but if there was lilac, then it was always A. so if both orange and lilac came up, it was A. other colors were harder to understand.",no,I do not have any idea. maybe about chance? ,"maybe an explanation on what this experiment was about? 
",FALSE,TRUE
categorize-image,101,32,25,TRUE,839267,p1902plwm5c,hard2,lemur,273,b,stimuli/experiment1a/low_A_010.png,low,B,TRUE,/Users/martincz/GitHub/COGS119/group_wi26_nameability/analysis/../data/raw_data/p1902plwm5c_1772139713639.csv,yes,no,"if it was orange, it was usually B. but if there was lilac, then it was always A. so if both orange and lilac came up, it was A. other colors were harder to understand.",no,I do not have any idea. maybe about chance? ,"maybe an explanation on what this experiment was about? 
",FALSE,FALSE
categorize-image,104,33,26,FALSE,843311,p1902plwm5c,hard2,lemur,1035,b,stimuli/experiment1a/low_A_001.png,low,B,TRUE,/Users/martincz/GitHub/COGS119/group_wi26_nameability/analysis/../data/raw_data/p1902plwm5c_1772139713639.csv,yes,no,"if it was orange, it was usually B. but if there was lilac, then it was always A. so if both orange and lilac came up, it was A. other colors were harder to understand.",no,I do not have any idea. maybe about chance? ,"maybe an explanation on what this experiment was about? 
",FALSE,TRUE
categorize-image,107,34,27,FALSE,846861,p1902plwm5c,hard2,lemur,541,a,stimuli/experiment1a/low_B_101.png,low,A,TRUE,/Users/martincz/GitHub/COGS119/group_wi26_nameability/analysis/../data/raw_data/p1902plwm5c_1772139713639.csv,yes,no,"if it was orange, it was usually B. but if there was lilac, then it was always A. so if both orange and lilac came up, it was A. other colors were harder to understand.",no,I do not have any idea. maybe about chance? ,"maybe an explanation on what this experiment was about? 
",FALSE,TRUE
categorize-image,110,35,28,FALSE,850609,p1902plwm5c,hard2,lemur,741,b,stimuli/experiment1a/low_A_000.png,low,B,TRUE,/Users/martincz/GitHub/COGS119/group_wi26_nameability/analysis/../data/raw_data/p1902plwm5c_1772139713639.csv,yes,no,"if it was orange, it was usually B. but if there was lilac, then it was always A. so if both orange and lilac came up, it was A. other colors were harder to understand.",no,I do not have any idea. maybe about chance? ,"maybe an explanation on what this experiment was about? 
",FALSE,TRUE
categorize-image,113,36,29,FALSE,854329,p1902plwm5c,hard2,lemur,711,a,stimuli/experiment1a/low_B_110.png,low,A,TRUE,/Users/martincz/GitHub/COGS119/group_wi26_nameability/analysis/../data/raw_data/p1902plwm5c_1772139713639.csv,yes,no,"if it was orange, it was usually B. but if there was lilac, then it was always A. so if both orange and lilac came up, it was A. other colors were harder to understand.",no,I do not have any idea. maybe about chance? ,"maybe an explanation on what this experiment was about? 
",FALSE,TRUE
categorize-image,116,37,30,FALSE,857923,p1902plwm5c,hard2,lemur,585,a,stimuli/experiment1a/low_B_111.png,low,A,TRUE,/Users/martincz/GitHub/COGS119/group_wi26_nameability/analysis/../data/raw_data/p1902plwm5c_1772139713639.csv,yes,no,"if it was orange, it was usually B. but if there was lilac, then it was always A. so if both orange and lilac came up, it was A. other colors were harder to understand.",no,I do not have any idea. maybe about chance? ,"maybe an explanation on what this experiment was about? 
",FALSE,TRUE
categorize-image,119,38,31,FALSE,861529,p1902plwm5c,hard2,lemur,599,a,stimuli/experiment1a/low_B_111.png,low,A,TRUE,/Users/martincz/GitHub/COGS119/group_wi26_nameability/analysis/../data/raw_data/p1902plwm5c_1772139713639.csv,yes,no,"if it was orange, it was usually B. but if there was lilac, then it was always A. so if both orange and lilac came up, it was A. other colors were harder to understand.",no,I do not have any idea. maybe about chance? ,"maybe an explanation on what this experiment was about? 
",FALSE,TRUE
categorize-image,122,39,32,FALSE,865199,p1902plwm5c,hard2,lemur,662,b,stimuli/experiment1a/low_A_000.png,low,B,TRUE,/Users/martincz/GitHub/COGS119/group_wi26_nameability/analysis/../data/raw_data/p1902plwm5c_1772139713639.csv,yes,no,"if it was orange, it was usually B. but if there was lilac, then it was always A. so if both orange and lilac came up, it was A. other colors were harder to understand.",no,I do not have any idea. maybe about chance? ,"maybe an explanation on what this experiment was about? 
",FALSE,TRUE
categorize-image,128,40,33,FALSE,872260,p1902plwm5c,hard2,lemur,1774,a,stimuli/experiment1a/low_A_000.png,low,B,FALSE,/Users/martincz/GitHub/COGS119/group_wi26_nameability/analysis/../data/raw_data/p1902plwm5c_1772139713639.csv,yes,no,"if it was orange, it was usually B. but if there was lilac, then it was always A. so if both orange and lilac came up, it was A. other colors were harder to understand.",no,I do not have any idea. maybe about chance? ,"maybe an explanation on what this experiment was about? 
",FALSE,TRUE
categorize-image,130,41,33,TRUE,875024,p1902plwm5c,hard2,lemur,257,b,stimuli/experiment1a/low_A_000.png,low,B,TRUE,/Users/martincz/GitHub/COGS119/group_wi26_nameability/analysis/../data/raw_data/p1902plwm5c_1772139713639.csv,yes,no,"if it was orange, it was usually B. but if there was lilac, then it was always A. so if both orange and lilac came up, it was A. other colors were harder to understand.",no,I do not have any idea. maybe about chance? ,"maybe an explanation on what this experiment was about? 
",FALSE,FALSE
categorize-image,133,42,34,FALSE,879016,p1902plwm5c,hard2,lemur,984,a,stimuli/experiment1a/low_A_010.png,low,B,FALSE,/Users/martincz/GitHub/COGS119/group_wi26_nameability/analysis/../data/raw_data/p1902plwm5c_1772139713639.csv,yes,no,"if it was orange, it was usually B. but if there was lilac, then it was always A. so if both orange and lilac came up, it was A. other colors were harder to understand.",no,I do not have any idea. maybe about chance? ,"maybe an explanation on what this experiment was about? 
",FALSE,TRUE
categorize-image,135,43,34,TRUE,881811,p1902plwm5c,hard2,lemur,288,b,stimuli/experiment1a/low_A_010.png,low,B,TRUE,/Users/martincz/GitHub/COGS119/group_wi26_nameability/analysis/../data/raw_data/p1902plwm5c_1772139713639.csv,yes,no,"if it was orange, it was usually B. but if there was lilac, then it was always A. so if both orange and lilac came up, it was A. other colors were harder to understand.",no,I do not have any idea. maybe about chance? ,"maybe an explanation on what this experiment was about? 
",FALSE,FALSE
categorize-image,138,44,35,FALSE,885605,p1902plwm5c,hard2,lemur,785,a,stimuli/experiment1a/low_A_001.png,low,B,FALSE,/Users/martincz/GitHub/COGS119/group_wi26_nameability/analysis/../data/raw_data/p1902plwm5c_1772139713639.csv,yes,no,"if it was orange, it was usually B. but if there was lilac, then it was always A. so if both orange and lilac came up, it was A. other colors were harder to understand.",no,I do not have any idea. maybe about chance? ,"maybe an explanation on what this experiment was about? 
",FALSE,TRUE
categorize-image,140,45,35,TRUE,888462,p1902plwm5c,hard2,lemur,351,b,stimuli/experiment1a/low_A_001.png,low,B,TRUE,/Users/martincz/GitHub/COGS119/group_wi26_nameability/analysis/../data/raw_data/p1902plwm5c_1772139713639.csv,yes,no,"if it was orange, it was usually B. but if there was lilac, then it was always A. so if both orange and lilac came up, it was A. other colors were harder to understand.",no,I do not have any idea. maybe about chance? ,"maybe an explanation on what this experiment was about? 
",FALSE,FALSE
categorize-image,143,46,36,FALSE,892051,p1902plwm5c,hard2,lemur,580,b,stimuli/experiment1a/low_A_000.png,low,B,TRUE,/Users/martincz/GitHub/COGS119/group_wi26_nameability/analysis/../data/raw_data/p1902plwm5c_1772139713639.csv,yes,no,"if it was orange, it was usually B. but if there was lilac, then it was always A. so if both orange and lilac came up, it was A. other colors were harder to understand.",no,I do not have any idea. maybe about chance? ,"maybe an explanation on what this experiment was about? 
",FALSE,TRUE
categorize-image,146,47,37,FALSE,895714,p1902plwm5c,hard2,lemur,654,a,stimuli/experiment1a/low_B_111.png,low,A,TRUE,/Users/martincz/GitHub/COGS119/group_wi26_nameability/analysis/../data/raw_data/p1902plwm5c_1772139713639.csv,yes,no,"if it was orange, it was usually B. but if there was lilac, then it was always A. so if both orange and lilac came up, it was A. other colors were harder to understand.",no,I do not have any idea. maybe about chance? ,"maybe an explanation on what this experiment was about? 
",FALSE,TRUE
categorize-image,149,48,38,FALSE,899883,p1902plwm5c,hard2,lemur,1161,a,stimuli/experiment1a/low_B_101.png,low,A,TRUE,/Users/martincz/GitHub/COGS119/group_wi26_nameability/analysis/../data/raw_data/p1902plwm5c_1772139713639.csv,yes,no,"if it was orange, it was usually B. but if there was lilac, then it was always A. so if both orange and lilac came up, it was A. other colors were harder to understand.",no,I do not have any idea. maybe about chance? ,"maybe an explanation on what this experiment was about? 
",FALSE,TRUE
categorize-image,152,49,39,FALSE,904202,p1902plwm5c,hard2,lemur,1309,a,stimuli/experiment1a/low_B_110.png,low,A,TRUE,/Users/martincz/GitHub/COGS119/group_wi26_nameability/analysis/../data/raw_data/p1902plwm5c_1772139713639.csv,yes,no,"if it was orange, it was usually B. but if there was lilac, then it was always A. so if both orange and lilac came up, it was A. other colors were harder to understand.",no,I do not have any idea. maybe about chance? ,"maybe an explanation on what this experiment was about? 
",FALSE,TRUE
categorize-image,155,50,40,FALSE,907799,p1902plwm5c,hard2,lemur,588,a,stimuli/experiment1a/low_B_111.png,low,A,TRUE,/Users/martincz/GitHub/COGS119/group_wi26_nameability/analysis/../data/raw_data/p1902plwm5c_1772139713639.csv,yes,no,"if it was orange, it was usually B. but if there was lilac, then it was always A. so if both orange and lilac came up, it was A. other colors were harder to understand.",no,I do not have any idea. maybe about chance? ,"maybe an explanation on what this experiment was about? 
",FALSE,TRUE
categorize-image,161,51,41,FALSE,914351,p1902plwm5c,hard2,lemur,1393,b,stimuli/experiment1a/low_A_010.png,low,B,TRUE,/Users/martincz/GitHub/COGS119/group_wi26_nameability/analysis/../data/raw_data/p1902plwm5c_1772139713639.csv,yes,no,"if it was orange, it was usually B. but if there was lilac, then it was always A. so if both orange and lilac came up, it was A. other colors were harder to understand.",no,I do not have any idea. maybe about chance? ,"maybe an explanation on what this experiment was about? 
",FALSE,TRUE
categorize-image,164,52,42,FALSE,917876,p1902plwm5c,hard2,lemur,516,a,stimuli/experiment1a/low_A_001.png,low,B,FALSE,/Users/martincz/GitHub/COGS119/group_wi26_nameability/analysis/../data/raw_data/p1902plwm5c_1772139713639.csv,yes,no,"if it was orange, it was usually B. but if there was lilac, then it was always A. so if both orange and lilac came up, it was A. other colors were harder to understand.",no,I do not have any idea. maybe about chance? ,"maybe an explanation on what this experiment was about? 
",FALSE,TRUE
categorize-image,166,53,42,TRUE,920695,p1902plwm5c,hard2,lemur,313,b,stimuli/experiment1a/low_A_001.png,low,B,TRUE,/Users/martincz/GitHub/COGS119/group_wi26_nameability/analysis/../data/raw_data/p1902plwm5c_1772139713639.csv,yes,no,"if it was orange, it was usually B. but if there was lilac, then it was always A. so if both orange and lilac came up, it was A. other colors were harder to understand.",no,I do not have any idea. maybe about chance? ,"maybe an explanation on what this experiment was about? 
",FALSE,FALSE
categorize-image,169,54,43,FALSE,925393,p1902plwm5c,hard2,lemur,1688,a,stimuli/experiment1a/low_B_101.png,low,A,TRUE,/Users/martincz/GitHub/COGS119/group_wi26_nameability/analysis/../data/raw_data/p1902plwm5c_1772139713639.csv,yes,no,"if it was orange, it was usually B. but if there was lilac, then it was always A. so if both orange and lilac came up, it was A. other colors were harder to understand.",no,I do not have any idea. maybe about chance? ,"maybe an explanation on what this experiment was about? 
",FALSE,TRUE
categorize-image,172,55,44,FALSE,929909,p1902plwm5c,hard2,lemur,1506,b,stimuli/experiment1a/low_A_000.png,low,B,TRUE,/Users/martincz/GitHub/COGS119/group_wi26_nameability/analysis/../data/raw_data/p1902plwm5c_1772139713639.csv,yes,no,"if it was orange, it was usually B. but if there was lilac, then it was always A. so if both orange and lilac came up, it was A. other colors were harder to understand.",no,I do not have any idea. maybe about chance? ,"maybe an explanation on what this experiment was about? 
",FALSE,TRUE
categorize-image,175,56,45,FALSE,934060,p1902plwm5c,hard2,lemur,1142,a,stimuli/experiment1a/low_B_111.png,low,A,TRUE,/Users/martincz/GitHub/COGS119/group_wi26_nameability/analysis/../data/raw_data/p1902plwm5c_1772139713639.csv,yes,no,"if it was orange, it was usually B. but if there was lilac, then it was always A. so if both orange and lilac came up, it was A. other colors were harder to understand.",no,I do not have any idea. maybe about chance? ,"maybe an explanation on what this experiment was about? 
",FALSE,TRUE
categorize-image,178,57,46,FALSE,938199,p1902plwm5c,hard2,lemur,1132,b,stimuli/experiment1a/low_A_000.png,low,B,TRUE,/Users/martincz/GitHub/COGS119/group_wi26_nameability/analysis/../data/raw_data/p1902plwm5c_1772139713639.csv,yes,no,"if it was orange, it was usually B. but if there was lilac, then it was always A. so if both orange and lilac came up, it was A. other colors were harder to understand.",no,I do not have any idea. maybe about chance? ,"maybe an explanation on what this experiment was about? 
",FALSE,TRUE
categorize-image,181,58,47,FALSE,941932,p1902plwm5c,hard2,lemur,724,a,stimuli/experiment1a/low_B_110.png,low,A,TRUE,/Users/martincz/GitHub/COGS119/group_wi26_nameability/analysis/../data/raw_data/p1902plwm5c_1772139713639.csv,yes,no,"if it was orange, it was usually B. but if there was lilac, then it was always A. so if both orange and lilac came up, it was A. other colors were harder to understand.",no,I do not have any idea. maybe about chance? ,"maybe an explanation on what this experiment was about? 
",FALSE,TRUE
categorize-image,184,59,48,FALSE,945401,p1902plwm5c,hard2,lemur,461,a,stimuli/experiment1a/low_B_111.png,low,A,TRUE,/Users/martincz/GitHub/COGS119/group_wi26_nameability/analysis/../data/raw_data/p1902plwm5c_1772139713639.csv,yes,no,"if it was orange, it was usually B. but if there was lilac, then it was always A. so if both orange and lilac came up, it was A. other colors were harder to understand.",no,I do not have any idea. maybe about chance? ,"maybe an explanation on what this experiment was about? 
",FALSE,TRUE
categorize-image,6,1,1,FALSE,41828,p1nza6kw2n4,easy,wallaby,4979,a,stimuli/experiment1a/high_A_000.png,high,A,TRUE,/Users/martincz/GitHub/COGS119/group_wi26_nameability/analysis/../data/raw_data/p1nza6kw2n4_1772163276041.csv,no,no,"no, just use memory",no,It's about human memory?,/,FALSE,TRUE
categorize-image,9,2,2,FALSE,55361,p1nza6kw2n4,easy,wallaby,10523,a,stimuli/experiment1a/high_B_111.png,high,B,FALSE,/Users/martincz/GitHub/COGS119/group_wi26_nameability/analysis/../data/raw_data/p1nza6kw2n4_1772163276041.csv,no,no,"no, just use memory",no,It's about human memory?,/,FALSE,TRUE
categorize-image,11,3,2,TRUE,59082,p1nza6kw2n4,easy,wallaby,1213,b,stimuli/experiment1a/high_B_111.png,high,B,TRUE,/Users/martincz/GitHub/COGS119/group_wi26_nameability/analysis/../data/raw_data/p1nza6kw2n4_1772163276041.csv,no,no,"no, just use memory",no,It's about human memory?,/,FALSE,FALSE
categorize-image,14,4,3,FALSE,63095,p1nza6kw2n4,easy,wallaby,1005,a,stimuli/experiment1a/high_B_101.png,high,B,FALSE,/Users/martincz/GitHub/COGS119/group_wi26_nameability/analysis/../data/raw_data/p1nza6kw2n4_1772163276041.csv,no,no,"no, just use memory",no,It's about human memory?,/,FALSE,TRUE
categorize-image,16,5,3,TRUE,66750,p1nza6kw2n4,easy,wallaby,1148,b,stimuli/experiment1a/high_B_101.png,high,B,TRUE,/Users/martincz/GitHub/COGS119/group_wi26_nameability/analysis/../data/raw_data/p1nza6kw2n4_1772163276041.csv,no,no,"no, just use memory",no,It's about human memory?,/,FALSE,FALSE
categorize-image,19,6,4,FALSE,70890,p1nza6kw2n4,easy,wallaby,1131,a,stimuli/experiment1a/high_A_001.png,high,A,TRUE,/Users/martincz/GitHub/COGS119/group_wi26_nameability/analysis/../data/raw_data/p1nza6kw2n4_1772163276041.csv,no,no,"no, just use memory",no,It's about human memory?,/,FALSE,TRUE
categorize-image,22,7,5,FALSE,74857,p1nza6kw2n4,easy,wallaby,958,a,stimuli/experiment1a/high_B_110.png,high,B,FALSE,/Users/martincz/GitHub/COGS119/group_wi26_nameability/analysis/../data/raw_data/p1nza6kw2n4_1772163276041.csv,no,no,"no, just use memory",no,It's about human memory?,/,FALSE,TRUE
categorize-image,24,8,5,TRUE,77670,p1nza6kw2n4,easy,wallaby,306,b,stimuli/experiment1a/high_B_110.png,high,B,TRUE,/Users/martincz/GitHub/COGS119/group_wi26_nameability/analysis/../data/raw_data/p1nza6kw2n4_1772163276041.csv,no,no,"no, just use memory",no,It's about human memory?,/,FALSE,FALSE
categorize-image,27,9,6,FALSE,81922,p1nza6kw2n4,easy,wallaby,1243,a,stimuli/experiment1a/high_B_111.png,high,B,FALSE,/Users/martincz/GitHub/COGS119/group_wi26_nameability/analysis/../data/raw_data/p1nza6kw2n4_1772163276041.csv,no,no,"no, just use memory",no,It's about human memory?,/,FALSE,TRUE
categorize-image,29,10,6,TRUE,84597,p1nza6kw2n4,easy,wallaby,169,b,stimuli/experiment1a/high_B_111.png,high,B,TRUE,/Users/martincz/GitHub/COGS119/group_wi26_nameability/analysis/../data/raw_data/p1nza6kw2n4_1772163276041.csv,no,no,"no, just use memory",no,It's about human memory?,/,FALSE,FALSE
categorize-image,32,11,7,FALSE,88289,p1nza6kw2n4,easy,wallaby,683,b,stimuli/experiment1a/high_A_010.png,high,A,FALSE,/Users/martincz/GitHub/COGS119/group_wi26_nameability/analysis/../data/raw_data/p1nza6kw2n4_1772163276041.csv,no,no,"no, just use memory",no,It's about human memory?,/,FALSE,TRUE
categorize-image,34,12,7,TRUE,91294,p1nza6kw2n4,easy,wallaby,499,a,stimuli/experiment1a/high_A_010.png,high,A,TRUE,/Users/martincz/GitHub/COGS119/group_wi26_nameability/analysis/../data/raw_data/p1nza6kw2n4_1772163276041.csv,no,no,"no, just use memory",no,It's about human memory?,/,FALSE,FALSE
categorize-image,37,13,8,FALSE,95089,p1nza6kw2n4,easy,wallaby,786,a,stimuli/experiment1a/high_A_000.png,high,A,TRUE,/Users/martincz/GitHub/COGS119/group_wi26_nameability/analysis/../data/raw_data/p1nza6kw2n4_1772163276041.csv,no,no,"no, just use memory",no,It's about human memory?,/,FALSE,TRUE
categorize-image,43,14,9,FALSE,106434,p1nza6kw2n4,easy,wallaby,741,a,stimuli/experiment1a/high_B_110.png,high,B,FALSE,/Users/martincz/GitHub/COGS119/group_wi26_nameability/analysis/../data/raw_data/p1nza6kw2n4_1772163276041.csv,no,no,"no, just use memory",no,It's about human memory?,/,FALSE,TRUE
categorize-image,45,15,9,TRUE,109177,p1nza6kw2n4,easy,wallaby,236,b,stimuli/experiment1a/high_B_110.png,high,B,TRUE,/Users/martincz/GitHub/COGS119/group_wi26_nameability/analysis/../data/raw_data/p1nza6kw2n4_1772163276041.csv,no,no,"no, just use memory",no,It's about human memory?,/,FALSE,FALSE
categorize-image,48,16,10,FALSE,112994,p1nza6kw2n4,easy,wallaby,807,b,stimuli/experiment1a/high_B_101.png,high,B,TRUE,/Users/martincz/GitHub/COGS119/group_wi26_nameability/analysis/../data/raw_data/p1nza6kw2n4_1772163276041.csv,no,no,"no, just use memory",no,It's about human memory?,/,FALSE,TRUE
categorize-image,51,17,11,FALSE,116270,p1nza6kw2n4,easy,wallaby,267,b,stimuli/experiment1a/high_A_000.png,high,A,FALSE,/Users/martincz/GitHub/COGS119/group_wi26_nameability/analysis/../data/raw_data/p1nza6kw2n4_1772163276041.csv,no,no,"no, just use memory",no,It's about human memory?,/,FALSE,TRUE
categorize-image,53,18,11,TRUE,118995,p1nza6kw2n4,easy,wallaby,218,a,stimuli/experiment1a/high_A_000.png,high,A,TRUE,/Users/martincz/GitHub/COGS119/group_wi26_nameability/analysis/../data/raw_data/p1nza6kw2n4_1772163276041.csv,no,no,"no, just use memory",no,It's about human memory?,/,FALSE,FALSE
categorize-image,56,19,12,FALSE,122781,p1nza6kw2n4,easy,wallaby,778,b,stimuli/experiment1a/high_A_010.png,high,A,FALSE,/Users/martincz/GitHub/COGS119/group_wi26_nameability/analysis/../data/raw_data/p1nza6kw2n4_1772163276041.csv,no,no,"no, just use memory",no,It's about human memory?,/,FALSE,TRUE
categorize-image,58,20,12,TRUE,125388,p1nza6kw2n4,easy,wallaby,100,a,stimuli/experiment1a/high_A_010.png,high,A,TRUE,/Users/martincz/GitHub/COGS119/group_wi26_nameability/analysis/../data/raw_data/p1nza6kw2n4_1772163276041.csv,no,no,"no, just use memory",no,It's about human memory?,/,FALSE,FALSE
categorize-image,61,21,13,FALSE,128455,p1nza6kw2n4,easy,wallaby,59,a,stimuli/experiment1a/high_B_111.png,high,B,FALSE,/Users/martincz/GitHub/COGS119/group_wi26_nameability/analysis/../data/raw_data/p1nza6kw2n4_1772163276041.csv,no,no,"no, just use memory",no,It's about human memory?,/,FALSE,TRUE
categorize-image,63,22,13,TRUE,131026,p1nza6kw2n4,easy,wallaby,64,b,stimuli/experiment1a/high_B_111.png,high,B,TRUE,/Users/martincz/GitHub/COGS119/group_wi26_nameability/analysis/../data/raw_data/p1nza6kw2n4_1772163276041.csv,no,no,"no, just use memory",no,It's about human memory?,/,FALSE,FALSE
categorize-image,66,23,14,FALSE,134278,p1nza6kw2n4,easy,wallaby,244,b,stimuli/experiment1a/high_A_000.png,high,A,FALSE,/Users/martincz/GitHub/COGS119/group_wi26_nameability/analysis/../data/raw_data/p1nza6kw2n4_1772163276041.csv,no,no,"no, just use memory",no,It's about human memory?,/,FALSE,TRUE
categorize-image,68,24,14,TRUE,137036,p1nza6kw2n4,easy,wallaby,252,a,stimuli/experiment1a/high_A_000.png,high,A,TRUE,/Users/martincz/GitHub/COGS119/group_wi26_nameability/analysis/../data/raw_data/p1nza6kw2n4_1772163276041.csv,no,no,"no, just use memory",no,It's about human memory?,/,FALSE,FALSE
categorize-image,71,25,15,FALSE,140458,p1nza6kw2n4,easy,wallaby,415,a,stimuli/experiment1a/high_A_001.png,high,A,TRUE,/Users/martincz/GitHub/COGS119/group_wi26_nameability/analysis/../data/raw_data/p1nza6kw2n4_1772163276041.csv,no,no,"no, just use memory",no,It's about human memory?,/,FALSE,TRUE
categorize-image,74,26,16,FALSE,143575,p1nza6kw2n4,easy,wallaby,108,a,stimuli/experiment1a/high_B_111.png,high,B,FALSE,/Users/martincz/GitHub/COGS119/group_wi26_nameability/analysis/../data/raw_data/p1nza6kw2n4_1772163276041.csv,no,no,"no, just use memory",no,It's about human memory?,/,FALSE,TRUE
categorize-image,76,27,16,TRUE,146103,p1nza6kw2n4,easy,wallaby,22,b,stimuli/experiment1a/high_B_111.png,high,B,TRUE,/Users/martincz/GitHub/COGS119/group_wi26_nameability/analysis/../data/raw_data/p1nza6kw2n4_1772163276041.csv,no,no,"no, just use memory",no,It's about human memory?,/,FALSE,FALSE
categorize-image,82,28,17,FALSE,156266,p1nza6kw2n4,easy,wallaby,818,b,stimuli/experiment1a/high_B_111.png,high,B,TRUE,/Users/martincz/GitHub/COGS119/group_wi26_nameability/analysis/../data/raw_data/p1nza6kw2n4_1772163276041.csv,no,no,"no, just use memory",no,It's about human memory?,/,FALSE,TRUE
categorize-image,85,29,18,FALSE,159706,p1nza6kw2n4,easy,wallaby,430,b,stimuli/experiment1a/high_A_010.png,high,A,FALSE,/Users/martincz/GitHub/COGS119/group_wi26_nameability/analysis/../data/raw_data/p1nza6kw2n4_1772163276041.csv,no,no,"no, just use memory",no,It's about human memory?,/,FALSE,TRUE
categorize-image,87,30,18,TRUE,162421,p1nza6kw2n4,easy,wallaby,209,a,stimuli/experiment1a/high_A_010.png,high,A,TRUE,/Users/martincz/GitHub/COGS119/group_wi26_nameability/analysis/../data/raw_data/p1nza6kw2n4_1772163276041.csv,no,no,"no, just use memory",no,It's about human memory?,/,FALSE,FALSE
categorize-image,90,31,19,FALSE,165543,p1nza6kw2n4,easy,wallaby,112,a,stimuli/experiment1a/high_A_000.png,high,A,TRUE,/Users/martincz/GitHub/COGS119/group_wi26_nameability/analysis/../data/raw_data/p1nza6kw2n4_1772163276041.csv,no,no,"no, just use memory",no,It's about human memory?,/,FALSE,TRUE
categorize-image,93,32,20,FALSE,168833,p1nza6kw2n4,easy,wallaby,283,b,stimuli/experiment1a/high_B_111.png,high,B,TRUE,/Users/martincz/GitHub/COGS119/group_wi26_nameability/analysis/../data/raw_data/p1nza6kw2n4_1772163276041.csv,no,no,"no, just use memory",no,It's about human memory?,/,FALSE,TRUE
categorize-image,96,33,21,FALSE,172129,p1nza6kw2n4,easy,wallaby,286,b,stimuli/experiment1a/high_A_000.png,high,A,FALSE,/Users/martincz/GitHub/COGS119/group_wi26_nameability/analysis/../data/raw_data/p1nza6kw2n4_1772163276041.csv,no,no,"no, just use memory",no,It's about human memory?,/,FALSE,TRUE
categorize-image,98,34,21,TRUE,174877,p1nza6kw2n4,easy,wallaby,242,a,stimuli/experiment1a/high_A_000.png,high,A,TRUE,/Users/martincz/GitHub/COGS119/group_wi26_nameability/analysis/../data/raw_data/p1nza6kw2n4_1772163276041.csv,no,no,"no, just use memory",no,It's about human memory?,/,FALSE,FALSE
categorize-image,101,35,22,FALSE,178163,p1nza6kw2n4,easy,wallaby,277,a,stimuli/experiment1a/high_B_110.png,high,B,FALSE,/Users/martincz/GitHub/COGS119/group_wi26_nameability/analysis/../data/raw_data/p1nza6kw2n4_1772163276041.csv,no,no,"no, just use memory",no,It's about human memory?,/,FALSE,TRUE
categorize-image,103,36,22,TRUE,181713,p1nza6kw2n4,easy,wallaby,1043,b,stimuli/experiment1a/high_B_110.png,high,B,TRUE,/Users/martincz/GitHub/COGS119/group_wi26_nameability/analysis/../data/raw_data/p1nza6kw2n4_1772163276041.csv,no,no,"no, just use memory",no,It's about human memory?,/,FALSE,FALSE
categorize-image,106,37,23,FALSE,184922,p1nza6kw2n4,easy,wallaby,200,b,stimuli/experiment1a/high_B_101.png,high,B,TRUE,/Users/martincz/GitHub/COGS119/group_wi26_nameability/analysis/../data/raw_data/p1nza6kw2n4_1772163276041.csv,no,no,"no, just use memory",no,It's about human memory?,/,FALSE,TRUE
categorize-image,109,38,24,FALSE,188300,p1nza6kw2n4,easy,wallaby,370,b,stimuli/experiment1a/high_A_001.png,high,A,FALSE,/Users/martincz/GitHub/COGS119/group_wi26_nameability/analysis/../data/raw_data/p1nza6kw2n4_1772163276041.csv,no,no,"no, just use memory",no,It's about human memory?,/,FALSE,TRUE
categorize-image,111,39,24,TRUE,191057,p1nza6kw2n4,easy,wallaby,251,a,stimuli/experiment1a/high_A_001.png,high,A,TRUE,/Users/martincz/GitHub/COGS119/group_wi26_nameability/analysis/../data/raw_data/p1nza6kw2n4_1772163276041.csv,no,no,"no, just use memory",no,It's about human memory?,/,FALSE,FALSE
categorize-image,117,40,25,FALSE,198881,p1nza6kw2n4,easy,wallaby,285,b,stimuli/experiment1a/high_B_101.png,high,B,TRUE,/Users/martincz/GitHub/COGS119/group_wi26_nameability/analysis/../data/raw_data/p1nza6kw2n4_1772163276041.csv,no,no,"no, just use memory",no,It's about human memory?,/,FALSE,TRUE
categorize-image,120,41,26,FALSE,202479,p1nza6kw2n4,easy,wallaby,590,b,stimuli/experiment1a/high_A_000.png,high,A,FALSE,/Users/martincz/GitHub/COGS119/group_wi26_nameability/analysis/../data/raw_data/p1nza6kw2n4_1772163276041.csv,no,no,"no, just use memory",no,It's about human memory?,/,FALSE,TRUE
categorize-image,122,42,26,TRUE,205262,p1nza6kw2n4,easy,wallaby,276,a,stimuli/experiment1a/high_A_000.png,high,A,TRUE,/Users/martincz/GitHub/COGS119/group_wi26_nameability/analysis/../data/raw_data/p1nza6kw2n4_1772163276041.csv,no,no,"no, just use memory",no,It's about human memory?,/,FALSE,FALSE
categorize-image,125,43,27,FALSE,209008,p1nza6kw2n4,easy,wallaby,737,a,stimuli/experiment1a/high_A_001.png,high,A,TRUE,/Users/martincz/GitHub/COGS119/group_wi26_nameability/analysis/../data/raw_data/p1nza6kw2n4_1772163276041.csv,no,no,"no, just use memory",no,It's about human memory?,/,FALSE,TRUE
categorize-image,128,44,28,FALSE,212748,p1nza6kw2n4,easy,wallaby,732,a,stimuli/experiment1a/high_A_010.png,high,A,TRUE,/Users/martincz/GitHub/COGS119/group_wi26_nameability/analysis/../data/raw_data/p1nza6kw2n4_1772163276041.csv,no,no,"no, just use memory",no,It's about human memory?,/,FALSE,TRUE
categorize-image,131,45,29,FALSE,216163,p1nza6kw2n4,easy,wallaby,407,b,stimuli/experiment1a/high_B_110.png,high,B,TRUE,/Users/martincz/GitHub/COGS119/group_wi26_nameability/analysis/../data/raw_data/p1nza6kw2n4_1772163276041.csv,no,no,"no, just use memory",no,It's about human memory?,/,FALSE,TRUE
categorize-image,134,46,30,FALSE,220364,p1nza6kw2n4,easy,wallaby,1193,b,stimuli/experiment1a/high_B_111.png,high,B,TRUE,/Users/martincz/GitHub/COGS119/group_wi26_nameability/analysis/../data/raw_data/p1nza6kw2n4_1772163276041.csv,no,no,"no, just use memory",no,It's about human memory?,/,FALSE,TRUE
categorize-image,137,47,31,FALSE,224011,p1nza6kw2n4,easy,wallaby,637,b,stimuli/experiment1a/high_B_111.png,high,B,TRUE,/Users/martincz/GitHub/COGS119/group_wi26_nameability/analysis/../data/raw_data/p1nza6kw2n4_1772163276041.csv,no,no,"no, just use memory",no,It's about human memory?,/,FALSE,TRUE
categorize-image,140,48,32,FALSE,227684,p1nza6kw2n4,easy,wallaby,665,a,stimuli/experiment1a/high_A_000.png,high,A,TRUE,/Users/martincz/GitHub/COGS119/group_wi26_nameability/analysis/../data/raw_data/p1nza6kw2n4_1772163276041.csv,no,no,"no, just use memory",no,It's about human memory?,/,FALSE,TRUE
categorize-image,146,49,33,FALSE,237814,p1nza6kw2n4,easy,wallaby,773,a,stimuli/experiment1a/high_A_000.png,high,A,TRUE,/Users/martincz/GitHub/COGS119/group_wi26_nameability/analysis/../data/raw_data/p1nza6kw2n4_1772163276041.csv,no,no,"no, just use memory",no,It's about human memory?,/,FALSE,TRUE
categorize-image,149,50,34,FALSE,241438,p1nza6kw2n4,easy,wallaby,616,b,stimuli/experiment1a/high_B_101.png,high,B,TRUE,/Users/martincz/GitHub/COGS119/group_wi26_nameability/analysis/../data/raw_data/p1nza6kw2n4_1772163276041.csv,no,no,"no, just use memory",no,It's about human memory?,/,FALSE,TRUE
categorize-image,152,51,35,FALSE,244894,p1nza6kw2n4,easy,wallaby,447,b,stimuli/experiment1a/high_A_001.png,high,A,FALSE,/Users/martincz/GitHub/COGS119/group_wi26_nameability/analysis/../data/raw_data/p1nza6kw2n4_1772163276041.csv,no,no,"no, just use memory",no,It's about human memory?,/,FALSE,TRUE
categorize-image,154,52,35,TRUE,247768,p1nza6kw2n4,easy,wallaby,368,a,stimuli/experiment1a/high_A_001.png,high,A,TRUE,/Users/martincz/GitHub/COGS119/group_wi26_nameability/analysis/../data/raw_data/p1nza6kw2n4_1772163276041.csv,no,no,"no, just use memory",no,It's about human memory?,/,FALSE,FALSE
categorize-image,157,53,36,FALSE,251493,p1nza6kw2n4,easy,wallaby,717,a,stimuli/experiment1a/high_A_000.png,high,A,TRUE,/Users/martincz/GitHub/COGS119/group_wi26_nameability/analysis/../data/raw_data/p1nza6kw2n4_1772163276041.csv,no,no,"no, just use memory",no,It's about human memory?,/,FALSE,TRUE
categorize-image,160,54,37,FALSE,255125,p1nza6kw2n4,easy,wallaby,623,b,stimuli/experiment1a/high_B_111.png,high,B,TRUE,/Users/martincz/GitHub/COGS119/group_wi26_nameability/analysis/../data/raw_data/p1nza6kw2n4_1772163276041.csv,no,no,"no, just use memory",no,It's about human memory?,/,FALSE,TRUE
categorize-image,163,55,38,FALSE,258403,p1nza6kw2n4,easy,wallaby,269,b,stimuli/experiment1a/high_B_110.png,high,B,TRUE,/Users/martincz/GitHub/COGS119/group_wi26_nameability/analysis/../data/raw_data/p1nza6kw2n4_1772163276041.csv,no,no,"no, just use memory",no,It's about human memory?,/,FALSE,TRUE
categorize-image,166,56,39,FALSE,261772,p1nza6kw2n4,easy,wallaby,360,a,stimuli/experiment1a/high_A_010.png,high,A,TRUE,/Users/martincz/GitHub/COGS119/group_wi26_nameability/analysis/../data/raw_data/p1nza6kw2n4_1772163276041.csv,no,no,"no, just use memory",no,It's about human memory?,/,FALSE,TRUE
categorize-image,169,57,40,FALSE,265027,p1nza6kw2n4,easy,wallaby,246,a,stimuli/experiment1a/high_B_111.png,high,B,FALSE,/Users/martincz/GitHub/COGS119/group_wi26_nameability/analysis/../data/raw_data/p1nza6kw2n4_1772163276041.csv,no,no,"no, just use memory",no,It's about human memory?,/,FALSE,TRUE
categorize-image,171,58,40,TRUE,267767,p1nza6kw2n4,easy,wallaby,235,b,stimuli/experiment1a/high_B_111.png,high,B,TRUE,/Users/martincz/GitHub/COGS119/group_wi26_nameability/analysis/../data/raw_data/p1nza6kw2n4_1772163276041.csv,no,no,"no, just use memory",no,It's about human memory?,/,FALSE,FALSE
categorize-image,177,59,41,FALSE,278306,p1nza6kw2n4,easy,wallaby,830,b,stimuli/experiment1a/high_B_111.png,high,B,TRUE,/Users/martincz/GitHub/COGS119/group_wi26_nameability/analysis/../data/raw_data/p1nza6kw2n4_1772163276041.csv,no,no,"no, just use memory",no,It's about human memory?,/,FALSE,TRUE
categorize-image,180,60,42,FALSE,282010,p1nza6kw2n4,easy,wallaby,695,a,stimuli/experiment1a/high_B_110.png,high,B,FALSE,/Users/martincz/GitHub/COGS119/group_wi26_nameability/analysis/../data/raw_data/p1nza6kw2n4_1772163276041.csv,no,no,"no, just use memory",no,It's about human memory?,/,FALSE,TRUE
categorize-image,182,61,42,TRUE,284840,p1nza6kw2n4,easy,wallaby,325,b,stimuli/experiment1a/high_B_110.png,high,B,TRUE,/Users/martincz/GitHub/COGS119/group_wi26_nameability/analysis/../data/raw_data/p1nza6kw2n4_1772163276041.csv,no,no,"no, just use memory",no,It's about human memory?,/,FALSE,FALSE
categorize-image,185,62,43,FALSE,288660,p1nza6kw2n4,easy,wallaby,812,a,stimuli/experiment1a/high_A_010.png,high,A,TRUE,/Users/martincz/GitHub/COGS119/group_wi26_nameability/analysis/../data/raw_data/p1nza6kw2n4_1772163276041.csv,no,no,"no, just use memory",no,It's about human memory?,/,FALSE,TRUE
categorize-image,188,63,44,FALSE,292382,p1nza6kw2n4,easy,wallaby,713,a,stimuli/experiment1a/high_A_000.png,high,A,TRUE,/Users/martincz/GitHub/COGS119/group_wi26_nameability/analysis/../data/raw_data/p1nza6kw2n4_1772163276041.csv,no,no,"no, just use memory",no,It's about human memory?,/,FALSE,TRUE
categorize-image,191,64,45,FALSE,296015,p1nza6kw2n4,easy,wallaby,625,b,stimuli/experiment1a/high_B_101.png,high,B,TRUE,/Users/martincz/GitHub/COGS119/group_wi26_nameability/analysis/../data/raw_data/p1nza6kw2n4_1772163276041.csv,no,no,"no, just use memory",no,It's about human memory?,/,FALSE,TRUE
categorize-image,194,65,46,FALSE,299601,p1nza6kw2n4,easy,wallaby,577,a,stimuli/experiment1a/high_A_000.png,high,A,TRUE,/Users/martincz/GitHub/COGS119/group_wi26_nameability/analysis/../data/raw_data/p1nza6kw2n4_1772163276041.csv,no,no,"no, just use memory",no,It's about human memory?,/,FALSE,TRUE
categorize-image,197,66,47,FALSE,303134,p1nza6kw2n4,easy,wallaby,523,a,stimuli/experiment1a/high_B_111.png,high,B,FALSE,/Users/martincz/GitHub/COGS119/group_wi26_nameability/analysis/../data/raw_data/p1nza6kw2n4_1772163276041.csv,no,no,"no, just use memory",no,It's about human memory?,/,FALSE,TRUE
categorize-image,199,67,47,TRUE,305873,p1nza6kw2n4,easy,wallaby,233,b,stimuli/experiment1a/high_B_111.png,high,B,TRUE,/Users/martincz/GitHub/COGS119/group_wi26_nameability/analysis/../data/raw_data/p1nza6kw2n4_1772163276041.csv,no,no,"no, just use memory",no,It's about human memory?,/,FALSE,FALSE
categorize-image,202,68,48,FALSE,309364,p1nza6kw2n4,easy,wallaby,483,a,stimuli/experiment1a/high_A_001.png,high,A,TRUE,/Users/martincz/GitHub/COGS119/group_wi26_nameability/analysis/../data/raw_data/p1nza6kw2n4_1772163276041.csv,no,no,"no, just use memory",no,It's about human memory?,/,FALSE,TRUE
categorize-image,6,1,1,FALSE,26680,p205y44hp57,hard,hamster,5816,A,stimuli/experiment1a/low_A_010.png,low,A,TRUE,/Users/martincz/GitHub/COGS119/group_wi26_nameability/analysis/../data/raw_data/p205y44hp57_1772162578742.csv,No,Middle school arts & crafts,For A I assimilated them as yellow-green palettes and B for more pastel colors,no,Pattern recognition around colors,no,FALSE,TRUE
categorize-image,9,2,2,FALSE,33005,p205y44hp57,hard,hamster,3301,b,stimuli/experiment1a/low_B_111.png,low,B,TRUE,/Users/martincz/GitHub/COGS119/group_wi26_nameability/analysis/../data/raw_data/p205y44hp57_1772162578742.csv,No,Middle school arts & crafts,For A I assimilated them as yellow-green palettes and B for more pastel colors,no,Pattern recognition around colors,no,FALSE,TRUE
categorize-image,12,3,3,FALSE,39292,p205y44hp57,hard,hamster,3250,a,stimuli/experiment1a/low_A_000.png,low,A,TRUE,/Users/martincz/GitHub/COGS119/group_wi26_nameability/analysis/../data/raw_data/p205y44hp57_1772162578742.csv,No,Middle school arts & crafts,For A I assimilated them as yellow-green palettes and B for more pastel colors,no,Pattern recognition around colors,no,FALSE,TRUE
categorize-image,15,4,4,FALSE,44653,p205y44hp57,hard,hamster,2324,b,stimuli/experiment1a/low_A_001.png,low,A,FALSE,/Users/martincz/GitHub/COGS119/group_wi26_nameability/analysis/../data/raw_data/p205y44hp57_1772162578742.csv,No,Middle school arts & crafts,For A I assimilated them as yellow-green palettes and B for more pastel colors,no,Pattern recognition around colors,no,FALSE,TRUE
categorize-image,17,5,4,TRUE,47952,p205y44hp57,hard,hamster,789,a,stimuli/experiment1a/low_A_001.png,low,A,TRUE,/Users/martincz/GitHub/COGS119/group_wi26_nameability/analysis/../data/raw_data/p205y44hp57_1772162578742.csv,No,Middle school arts & crafts,For A I assimilated them as yellow-green palettes and B for more pastel colors,no,Pattern recognition around colors,no,FALSE,FALSE
categorize-image,20,6,5,FALSE,54134,p205y44hp57,hard,hamster,3141,b,stimuli/experiment1a/low_B_101.png,low,B,TRUE,/Users/martincz/GitHub/COGS119/group_wi26_nameability/analysis/../data/raw_data/p205y44hp57_1772162578742.csv,No,Middle school arts & crafts,For A I assimilated them as yellow-green palettes and B for more pastel colors,no,Pattern recognition around colors,no,FALSE,TRUE
categorize-image,23,7,6,FALSE,59040,p205y44hp57,hard,hamster,1884,a,stimuli/experiment1a/low_B_110.png,low,B,FALSE,/Users/martincz/GitHub/COGS119/group_wi26_nameability/analysis/../data/raw_data/p205y44hp57_1772162578742.csv,No,Middle school arts & crafts,For A I assimilated them as yellow-green palettes and B for more pastel colors,no,Pattern recognition around colors,no,FALSE,TRUE
categorize-image,25,8,6,TRUE,61925,p205y44hp57,hard,hamster,365,b,stimuli/experiment1a/low_B_110.png,low,B,TRUE,/Users/martincz/GitHub/COGS119/group_wi26_nameability/analysis/../data/raw_data/p205y44hp57_1772162578742.csv,No,Middle school arts & crafts,For A I assimilated them as yellow-green palettes and B for more pastel colors,no,Pattern recognition around colors,no,FALSE,FALSE
categorize-image,28,9,7,FALSE,65665,p205y44hp57,hard,hamster,719,a,stimuli/experiment1a/low_A_000.png,low,A,TRUE,/Users/martincz/GitHub/COGS119/group_wi26_nameability/analysis/../data/raw_data/p205y44hp57_1772162578742.csv,No,Middle school arts & crafts,For A I assimilated them as yellow-green palettes and B for more pastel colors,no,Pattern recognition around colors,no,FALSE,TRUE
categorize-image,31,10,8,FALSE,69329,p205y44hp57,hard,hamster,624,b,stimuli/experiment1a/low_B_111.png,low,B,TRUE,/Users/martincz/GitHub/COGS119/group_wi26_nameability/analysis/../data/raw_data/p205y44hp57_1772162578742.csv,No,Middle school arts & crafts,For A I assimilated them as yellow-green palettes and B for more pastel colors,no,Pattern recognition around colors,no,FALSE,TRUE
categorize-image,37,11,9,FALSE,82914,p205y44hp57,hard,hamster,2584,b,stimuli/experiment1a/low_B_101.png,low,B,TRUE,/Users/martincz/GitHub/COGS119/group_wi26_nameability/analysis/../data/raw_data/p205y44hp57_1772162578742.csv,No,Middle school arts & crafts,For A I assimilated them as yellow-green palettes and B for more pastel colors,no,Pattern recognition around colors,no,FALSE,TRUE
categorize-image,40,12,10,FALSE,86474,p205y44hp57,hard,hamster,550,a,stimuli/experiment1a/low_A_010.png,low,A,TRUE,/Users/martincz/GitHub/COGS119/group_wi26_nameability/analysis/../data/raw_data/p205y44hp57_1772162578742.csv,No,Middle school arts & crafts,For A I assimilated them as yellow-green palettes and B for more pastel colors,no,Pattern recognition around colors,no,FALSE,TRUE
categorize-image,43,13,11,FALSE,90455,p205y44hp57,hard,hamster,966,a,stimuli/experiment1a/low_A_000.png,low,A,TRUE,/Users/martincz/GitHub/COGS119/group_wi26_nameability/analysis/../data/raw_data/p205y44hp57_1772162578742.csv,No,Middle school arts & crafts,For A I assimilated them as yellow-green palettes and B for more pastel colors,no,Pattern recognition around colors,no,FALSE,TRUE
categorize-image,46,14,12,FALSE,95134,p205y44hp57,hard,hamster,1655,b,stimuli/experiment1a/low_B_110.png,low,B,TRUE,/Users/martincz/GitHub/COGS119/group_wi26_nameability/analysis/../data/raw_data/p205y44hp57_1772162578742.csv,No,Middle school arts & crafts,For A I assimilated them as yellow-green palettes and B for more pastel colors,no,Pattern recognition around colors,no,FALSE,TRUE
categorize-image,49,15,13,FALSE,98949,p205y44hp57,hard,hamster,794,b,stimuli/experiment1a/low_B_111.png,low,B,TRUE,/Users/martincz/GitHub/COGS119/group_wi26_nameability/analysis/../data/raw_data/p205y44hp57_1772162578742.csv,No,Middle school arts & crafts,For A I assimilated them as yellow-green palettes and B for more pastel colors,no,Pattern recognition around colors,no,FALSE,TRUE
categorize-image,52,16,14,FALSE,104539,p205y44hp57,hard,hamster,2555,b,stimuli/experiment1a/low_A_001.png,low,A,FALSE,/Users/martincz/GitHub/COGS119/group_wi26_nameability/analysis/../data/raw_data/p205y44hp57_1772162578742.csv,No,Middle school arts & crafts,For A I assimilated them as yellow-green palettes and B for more pastel colors,no,Pattern recognition around colors,no,FALSE,TRUE
categorize-image,54,17,14,TRUE,107385,p205y44hp57,hard,hamster,327,a,stimuli/experiment1a/low_A_001.png,low,A,TRUE,/Users/martincz/GitHub/COGS119/group_wi26_nameability/analysis/../data/raw_data/p205y44hp57_1772162578742.csv,No,Middle school arts & crafts,For A I assimilated them as yellow-green palettes and B for more pastel colors,no,Pattern recognition around colors,no,FALSE,FALSE
categorize-image,57,18,15,FALSE,111480,p205y44hp57,hard,hamster,1077,a,stimuli/experiment1a/low_A_000.png,low,A,TRUE,/Users/martincz/GitHub/COGS119/group_wi26_nameability/analysis/../data/raw_data/p205y44hp57_1772162578742.csv,No,Middle school arts & crafts,For A I assimilated them as yellow-green palettes and B for more pastel colors,no,Pattern recognition around colors,no,FALSE,TRUE
categorize-image,60,19,16,FALSE,115226,p205y44hp57,hard,hamster,735,b,stimuli/experiment1a/low_B_111.png,low,B,TRUE,/Users/martincz/GitHub/COGS119/group_wi26_nameability/analysis/../data/raw_data/p205y44hp57_1772162578742.csv,No,Middle school arts & crafts,For A I assimilated them as yellow-green palettes and B for more pastel colors,no,Pattern recognition around colors,no,FALSE,TRUE
categorize-image,66,20,17,FALSE,124886,p205y44hp57,hard,hamster,1617,b,stimuli/experiment1a/low_B_111.png,low,B,TRUE,/Users/martincz/GitHub/COGS119/group_wi26_nameability/analysis/../data/raw_data/p205y44hp57_1772162578742.csv,No,Middle school arts & crafts,For A I assimilated them as yellow-green palettes and B for more pastel colors,no,Pattern recognition around colors,no,FALSE,TRUE
categorize-image,69,21,18,FALSE,128591,p205y44hp57,hard,hamster,670,a,stimuli/experiment1a/low_A_000.png,low,A,TRUE,/Users/martincz/GitHub/COGS119/group_wi26_nameability/analysis/../data/raw_data/p205y44hp57_1772162578742.csv,No,Middle school arts & crafts,For A I assimilated them as yellow-green palettes and B for more pastel colors,no,Pattern recognition around colors,no,FALSE,TRUE
categorize-image,72,22,19,FALSE,132155,p205y44hp57,hard,hamster,529,a,stimuli/experiment1a/low_A_000.png,low,A,TRUE,/Users/martincz/GitHub/COGS119/group_wi26_nameability/analysis/../data/raw_data/p205y44hp57_1772162578742.csv,No,Middle school arts & crafts,For A I assimilated them as yellow-green palettes and B for more pastel colors,no,Pattern recognition around colors,no,FALSE,TRUE
categorize-image,75,23,20,FALSE,136054,p205y44hp57,hard,hamster,851,b,stimuli/experiment1a/low_B_111.png,low,B,TRUE,/Users/martincz/GitHub/COGS119/group_wi26_nameability/analysis/../data/raw_data/p205y44hp57_1772162578742.csv,No,Middle school arts & crafts,For A I assimilated them as yellow-green palettes and B for more pastel colors,no,Pattern recognition around colors,no,FALSE,TRUE
categorize-image,78,24,21,FALSE,140308,p205y44hp57,hard,hamster,1216,b,stimuli/experiment1a/low_B_110.png,low,B,TRUE,/Users/martincz/GitHub/COGS119/group_wi26_nameability/analysis/../data/raw_data/p205y44hp57_1772162578742.csv,No,Middle school arts & crafts,For A I assimilated them as yellow-green palettes and B for more pastel colors,no,Pattern recognition around colors,no,FALSE,TRUE
categorize-image,81,25,22,FALSE,144343,p205y44hp57,hard,hamster,1013,a,stimuli/experiment1a/low_A_001.png,low,A,TRUE,/Users/martincz/GitHub/COGS119/group_wi26_nameability/analysis/../data/raw_data/p205y44hp57_1772162578742.csv,No,Middle school arts & crafts,For A I assimilated them as yellow-green palettes and B for more pastel colors,no,Pattern recognition around colors,no,FALSE,TRUE
categorize-image,84,26,23,FALSE,148350,p205y44hp57,hard,hamster,984,b,stimuli/experiment1a/low_B_101.png,low,B,TRUE,/Users/martincz/GitHub/COGS119/group_wi26_nameability/analysis/../data/raw_data/p205y44hp57_1772162578742.csv,No,Middle school arts & crafts,For A I assimilated them as yellow-green palettes and B for more pastel colors,no,Pattern recognition around colors,no,FALSE,TRUE
