success,timeout,failed_images,failed_audio,failed_video,trial_type,trial_index,plugin_version,time_elapsed,random_id,condition,participant,rt,response,stimulus,nameability,correct_category,correct,file_name
TRUE,FALSE,[],[],[],preload,0,2.1.0,159,p0ant7uvweh,hard,badger,NA,NA,NA,NA,NA,NA,/Users/martincz/GitHub/COGS119/group_wi26_nameability/analysis/../data/raw_data/p0ant7uvweh_1772140282964.csv
TRUE,NA,NA,NA,NA,fullscreen,1,2.1.0,3016,p0ant7uvweh,hard,badger,1854,NA,NA,NA,NA,NA,/Users/martincz/GitHub/COGS119/group_wi26_nameability/analysis/../data/raw_data/p0ant7uvweh_1772140282964.csv
NA,NA,NA,NA,NA,survey-text,2,2.1.0,6128,p0ant7uvweh,hard,badger,3110,"{""participant_id"":""badger""}",NA,NA,NA,NA,/Users/martincz/GitHub/COGS119/group_wi26_nameability/analysis/../data/raw_data/p0ant7uvweh_1772140282964.csv
NA,NA,NA,NA,NA,html-keyboard-response,3,2.1.0,11839,p0ant7uvweh,hard,badger,5709,NA,"
     <p> Welcome to the experiment! </p>

     <p> In this experiment, you will see a series of images. </p>
     <p> Your task is to categorize each image into one of two categories (A and B) as quickly and accurately as possible. </p>
     <p> You will receive feedback after each response. If you get the category wrong, you will be asked to choose the category again</p>
",NA,NA,NA,/Users/martincz/GitHub/COGS119/group_wi26_nameability/analysis/../data/raw_data/p0ant7uvweh_1772140282964.csv
NA,NA,NA,NA,NA,html-keyboard-response,4,2.1.0,12340,p0ant7uvweh,hard,badger,null,null,"<div style=""font-size:60px;"">+</div>",NA,NA,NA,/Users/martincz/GitHub/COGS119/group_wi26_nameability/analysis/../data/raw_data/p0ant7uvweh_1772140282964.csv
NA,NA,NA,NA,NA,html-keyboard-response,5,2.1.0,12843,p0ant7uvweh,hard,badger,null,null,"<div style=""font-size:60px;"">+</div>",NA,NA,NA,/Users/martincz/GitHub/COGS119/group_wi26_nameability/analysis/../data/raw_data/p0ant7uvweh_1772140282964.csv
NA,NA,NA,NA,NA,categorize-image,6,2.1.0,17585,p0ant7uvweh,hard,badger,2737,a,stimuli/experiment1a/low_A_000.png,low,A,TRUE,/Users/martincz/GitHub/COGS119/group_wi26_nameability/analysis/../data/raw_data/p0ant7uvweh_1772140282964.csv
NA,NA,NA,NA,NA,html-keyboard-response,7,2.1.0,18088,p0ant7uvweh,hard,badger,null,null,"<div style=""font-size:60px;"">+</div>",NA,NA,NA,/Users/martincz/GitHub/COGS119/group_wi26_nameability/analysis/../data/raw_data/p0ant7uvweh_1772140282964.csv
NA,NA,NA,NA,NA,html-keyboard-response,8,2.1.0,18591,p0ant7uvweh,hard,badger,null,null,"<div style=""font-size:60px;"">+</div>",NA,NA,NA,/Users/martincz/GitHub/COGS119/group_wi26_nameability/analysis/../data/raw_data/p0ant7uvweh_1772140282964.csv
NA,NA,NA,NA,NA,categorize-image,9,2.1.0,24205,p0ant7uvweh,hard,badger,3611,a,stimuli/experiment1a/low_A_001.png,low,A,TRUE,/Users/martincz/GitHub/COGS119/group_wi26_nameability/analysis/../data/raw_data/p0ant7uvweh_1772140282964.csv
NA,NA,NA,NA,NA,html-keyboard-response,10,2.1.0,24708,p0ant7uvweh,hard,badger,null,null,"<div style=""font-size:60px;"">+</div>",NA,NA,NA,/Users/martincz/GitHub/COGS119/group_wi26_nameability/analysis/../data/raw_data/p0ant7uvweh_1772140282964.csv
NA,NA,NA,NA,NA,html-keyboard-response,11,2.1.0,25209,p0ant7uvweh,hard,badger,null,null,"<div style=""font-size:60px;"">+</div>",NA,NA,NA,/Users/martincz/GitHub/COGS119/group_wi26_nameability/analysis/../data/raw_data/p0ant7uvweh_1772140282964.csv
NA,NA,NA,NA,NA,categorize-image,12,2.1.0,28349,p0ant7uvweh,hard,badger,1137,b,stimuli/experiment1a/low_B_111.png,low,B,TRUE,/Users/martincz/GitHub/COGS119/group_wi26_nameability/analysis/../data/raw_data/p0ant7uvweh_1772140282964.csv
NA,NA,NA,NA,NA,html-keyboard-response,13,2.1.0,28852,p0ant7uvweh,hard,badger,null,null,"<div style=""font-size:60px;"">+</div>",NA,NA,NA,/Users/martincz/GitHub/COGS119/group_wi26_nameability/analysis/../data/raw_data/p0ant7uvweh_1772140282964.csv
NA,NA,NA,NA,NA,html-keyboard-response,14,2.1.0,29353,p0ant7uvweh,hard,badger,null,null,"<div style=""font-size:60px;"">+</div>",NA,NA,NA,/Users/martincz/GitHub/COGS119/group_wi26_nameability/analysis/../data/raw_data/p0ant7uvweh_1772140282964.csv
NA,NA,NA,NA,NA,categorize-image,15,2.1.0,32004,p0ant7uvweh,hard,badger,648,b,stimuli/experiment1a/low_B_111.png,low,B,TRUE,/Users/martincz/GitHub/COGS119/group_wi26_nameability/analysis/../data/raw_data/p0ant7uvweh_1772140282964.csv
NA,NA,NA,NA,NA,html-keyboard-response,16,2.1.0,32507,p0ant7uvweh,hard,badger,null,null,"<div style=""font-size:60px;"">+</div>",NA,NA,NA,/Users/martincz/GitHub/COGS119/group_wi26_nameability/analysis/../data/raw_data/p0ant7uvweh_1772140282964.csv
NA,NA,NA,NA,NA,html-keyboard-response,17,2.1.0,33008,p0ant7uvweh,hard,badger,null,null,"<div style=""font-size:60px;"">+</div>",NA,NA,NA,/Users/martincz/GitHub/COGS119/group_wi26_nameability/analysis/../data/raw_data/p0ant7uvweh_1772140282964.csv
NA,NA,NA,NA,NA,categorize-image,18,2.1.0,36118,p0ant7uvweh,hard,badger,1107,a,stimuli/experiment1a/low_B_110.png,low,B,FALSE,/Users/martincz/GitHub/COGS119/group_wi26_nameability/analysis/../data/raw_data/p0ant7uvweh_1772140282964.csv
NA,NA,NA,NA,NA,html-keyboard-response,19,2.1.0,36621,p0ant7uvweh,hard,badger,null,null,"<div style=""font-size:60px;"">+</div>",NA,NA,NA,/Users/martincz/GitHub/COGS119/group_wi26_nameability/analysis/../data/raw_data/p0ant7uvweh_1772140282964.csv
NA,NA,NA,NA,NA,categorize-image,20,2.1.0,39430,p0ant7uvweh,hard,badger,806,b,stimuli/experiment1a/low_B_110.png,low,B,TRUE,/Users/martincz/GitHub/COGS119/group_wi26_nameability/analysis/../data/raw_data/p0ant7uvweh_1772140282964.csv
NA,NA,NA,NA,NA,html-keyboard-response,21,2.1.0,39933,p0ant7uvweh,hard,badger,null,null,"<div style=""font-size:60px;"">+</div>",NA,NA,NA,/Users/martincz/GitHub/COGS119/group_wi26_nameability/analysis/../data/raw_data/p0ant7uvweh_1772140282964.csv
NA,NA,NA,NA,NA,html-keyboard-response,22,2.1.0,40434,p0ant7uvweh,hard,badger,null,null,"<div style=""font-size:60px;"">+</div>",NA,NA,NA,/Users/martincz/GitHub/COGS119/group_wi26_nameability/analysis/../data/raw_data/p0ant7uvweh_1772140282964.csv
NA,NA,NA,NA,NA,categorize-image,23,2.1.0,42996,p0ant7uvweh,hard,badger,558,a,stimuli/experiment1a/low_B_101.png,low,B,FALSE,/Users/martincz/GitHub/COGS119/group_wi26_nameability/analysis/../data/raw_data/p0ant7uvweh_1772140282964.csv
NA,NA,NA,NA,NA,html-keyboard-response,24,2.1.0,43497,p0ant7uvweh,hard,badger,null,null,"<div style=""font-size:60px;"">+</div>",NA,NA,NA,/Users/martincz/GitHub/COGS119/group_wi26_nameability/analysis/../data/raw_data/p0ant7uvweh_1772140282964.csv
NA,NA,NA,NA,NA,categorize-image,25,2.1.0,45921,p0ant7uvweh,hard,badger,420,b,stimuli/experiment1a/low_B_101.png,low,B,TRUE,/Users/martincz/GitHub/COGS119/group_wi26_nameability/analysis/../data/raw_data/p0ant7uvweh_1772140282964.csv
NA,NA,NA,NA,NA,html-keyboard-response,26,2.1.0,46423,p0ant7uvweh,hard,badger,null,null,"<div style=""font-size:60px;"">+</div>",NA,NA,NA,/Users/martincz/GitHub/COGS119/group_wi26_nameability/analysis/../data/raw_data/p0ant7uvweh_1772140282964.csv
NA,NA,NA,NA,NA,html-keyboard-response,27,2.1.0,46925,p0ant7uvweh,hard,badger,null,null,"<div style=""font-size:60px;"">+</div>",NA,NA,NA,/Users/martincz/GitHub/COGS119/group_wi26_nameability/analysis/../data/raw_data/p0ant7uvweh_1772140282964.csv
NA,NA,NA,NA,NA,categorize-image,28,2.1.0,49418,p0ant7uvweh,hard,badger,490,a,stimuli/experiment1a/low_A_000.png,low,A,TRUE,/Users/martincz/GitHub/COGS119/group_wi26_nameability/analysis/../data/raw_data/p0ant7uvweh_1772140282964.csv
NA,NA,NA,NA,NA,html-keyboard-response,29,2.1.0,49921,p0ant7uvweh,hard,badger,null,null,"<div style=""font-size:60px;"">+</div>",NA,NA,NA,/Users/martincz/GitHub/COGS119/group_wi26_nameability/analysis/../data/raw_data/p0ant7uvweh_1772140282964.csv
NA,NA,NA,NA,NA,html-keyboard-response,30,2.1.0,50422,p0ant7uvweh,hard,badger,null,null,"<div style=""font-size:60px;"">+</div>",NA,NA,NA,/Users/martincz/GitHub/COGS119/group_wi26_nameability/analysis/../data/raw_data/p0ant7uvweh_1772140282964.csv
NA,NA,NA,NA,NA,categorize-image,31,2.1.0,52958,p0ant7uvweh,hard,badger,533,b,stimuli/experiment1a/low_A_010.png,low,A,FALSE,/Users/martincz/GitHub/COGS119/group_wi26_nameability/analysis/../data/raw_data/p0ant7uvweh_1772140282964.csv
NA,NA,NA,NA,NA,html-keyboard-response,32,2.1.0,53461,p0ant7uvweh,hard,badger,null,null,"<div style=""font-size:60px;"">+</div>",NA,NA,NA,/Users/martincz/GitHub/COGS119/group_wi26_nameability/analysis/../data/raw_data/p0ant7uvweh_1772140282964.csv
NA,NA,NA,NA,NA,categorize-image,33,2.1.0,55749,p0ant7uvweh,hard,badger,285,a,stimuli/experiment1a/low_A_010.png,low,A,TRUE,/Users/martincz/GitHub/COGS119/group_wi26_nameability/analysis/../data/raw_data/p0ant7uvweh_1772140282964.csv
NA,NA,NA,NA,NA,image-keyboard-response,34,null,57760,p0ant7uvweh,hard,badger,2006,q,stimuli/experiment_check.webp,NA,NA,NA,/Users/martincz/GitHub/COGS119/group_wi26_nameability/analysis/../data/raw_data/p0ant7uvweh_1772140282964.csv
NA,NA,NA,NA,NA,html-keyboard-response,35,2.1.0,59762,p0ant7uvweh,hard,badger,null,null,<p>Fluffy blesses you. Good job!</p><p>Press any key to continue.</p>,NA,NA,NA,/Users/martincz/GitHub/COGS119/group_wi26_nameability/analysis/../data/raw_data/p0ant7uvweh_1772140282964.csv
NA,NA,NA,NA,NA,html-keyboard-response,36,2.1.0,62481,p0ant7uvweh,hard,badger,2718,NA,<p><strong>TEST BLOCK 1 FINISHED</strong></p><p>Press any key to continue.</p>,NA,NA,NA,/Users/martincz/GitHub/COGS119/group_wi26_nameability/analysis/../data/raw_data/p0ant7uvweh_1772140282964.csv
NA,NA,NA,NA,NA,html-keyboard-response,37,2.1.0,62983,p0ant7uvweh,hard,badger,null,null,"<div style=""font-size:60px;"">+</div>",NA,NA,NA,/Users/martincz/GitHub/COGS119/group_wi26_nameability/analysis/../data/raw_data/p0ant7uvweh_1772140282964.csv
NA,NA,NA,NA,NA,html-keyboard-response,38,2.1.0,63485,p0ant7uvweh,hard,badger,null,null,"<div style=""font-size:60px;"">+</div>",NA,NA,NA,/Users/martincz/GitHub/COGS119/group_wi26_nameability/analysis/../data/raw_data/p0ant7uvweh_1772140282964.csv
NA,NA,NA,NA,NA,categorize-image,39,2.1.0,66211,p0ant7uvweh,hard,badger,723,a,stimuli/experiment1a/low_A_001.png,low,A,TRUE,/Users/martincz/GitHub/COGS119/group_wi26_nameability/analysis/../data/raw_data/p0ant7uvweh_1772140282964.csv
NA,NA,NA,NA,NA,html-keyboard-response,40,2.1.0,66714,p0ant7uvweh,hard,badger,null,null,"<div style=""font-size:60px;"">+</div>",NA,NA,NA,/Users/martincz/GitHub/COGS119/group_wi26_nameability/analysis/../data/raw_data/p0ant7uvweh_1772140282964.csv
NA,NA,NA,NA,NA,html-keyboard-response,41,2.1.0,67215,p0ant7uvweh,hard,badger,null,null,"<div style=""font-size:60px;"">+</div>",NA,NA,NA,/Users/martincz/GitHub/COGS119/group_wi26_nameability/analysis/../data/raw_data/p0ant7uvweh_1772140282964.csv
NA,NA,NA,NA,NA,categorize-image,42,2.1.0,69921,p0ant7uvweh,hard,badger,703,a,stimuli/experiment1a/low_A_010.png,low,A,TRUE,/Users/martincz/GitHub/COGS119/group_wi26_nameability/analysis/../data/raw_data/p0ant7uvweh_1772140282964.csv
NA,NA,NA,NA,NA,html-keyboard-response,43,2.1.0,70424,p0ant7uvweh,hard,badger,null,null,"<div style=""font-size:60px;"">+</div>",NA,NA,NA,/Users/martincz/GitHub/COGS119/group_wi26_nameability/analysis/../data/raw_data/p0ant7uvweh_1772140282964.csv
NA,NA,NA,NA,NA,html-keyboard-response,44,2.1.0,70925,p0ant7uvweh,hard,badger,null,null,"<div style=""font-size:60px;"">+</div>",NA,NA,NA,/Users/martincz/GitHub/COGS119/group_wi26_nameability/analysis/../data/raw_data/p0ant7uvweh_1772140282964.csv
NA,NA,NA,NA,NA,categorize-image,45,2.1.0,73685,p0ant7uvweh,hard,badger,758,b,stimuli/experiment1a/low_B_111.png,low,B,TRUE,/Users/martincz/GitHub/COGS119/group_wi26_nameability/analysis/../data/raw_data/p0ant7uvweh_1772140282964.csv
NA,NA,NA,NA,NA,html-keyboard-response,46,2.1.0,74188,p0ant7uvweh,hard,badger,null,null,"<div style=""font-size:60px;"">+</div>",NA,NA,NA,/Users/martincz/GitHub/COGS119/group_wi26_nameability/analysis/../data/raw_data/p0ant7uvweh_1772140282964.csv
NA,NA,NA,NA,NA,html-keyboard-response,47,2.1.0,74689,p0ant7uvweh,hard,badger,null,null,"<div style=""font-size:60px;"">+</div>",NA,NA,NA,/Users/martincz/GitHub/COGS119/group_wi26_nameability/analysis/../data/raw_data/p0ant7uvweh_1772140282964.csv
NA,NA,NA,NA,NA,categorize-image,48,2.1.0,77385,p0ant7uvweh,hard,badger,693,a,stimuli/experiment1a/low_B_101.png,low,B,FALSE,/Users/martincz/GitHub/COGS119/group_wi26_nameability/analysis/../data/raw_data/p0ant7uvweh_1772140282964.csv
NA,NA,NA,NA,NA,html-keyboard-response,49,2.1.0,77888,p0ant7uvweh,hard,badger,null,null,"<div style=""font-size:60px;"">+</div>",NA,NA,NA,/Users/martincz/GitHub/COGS119/group_wi26_nameability/analysis/../data/raw_data/p0ant7uvweh_1772140282964.csv
NA,NA,NA,NA,NA,categorize-image,50,2.1.0,80171,p0ant7uvweh,hard,badger,281,b,stimuli/experiment1a/low_B_101.png,low,B,TRUE,/Users/martincz/GitHub/COGS119/group_wi26_nameability/analysis/../data/raw_data/p0ant7uvweh_1772140282964.csv
NA,NA,NA,NA,NA,html-keyboard-response,51,2.1.0,80674,p0ant7uvweh,hard,badger,null,null,"<div style=""font-size:60px;"">+</div>",NA,NA,NA,/Users/martincz/GitHub/COGS119/group_wi26_nameability/analysis/../data/raw_data/p0ant7uvweh_1772140282964.csv
NA,NA,NA,NA,NA,html-keyboard-response,52,2.1.0,81176,p0ant7uvweh,hard,badger,null,null,"<div style=""font-size:60px;"">+</div>",NA,NA,NA,/Users/martincz/GitHub/COGS119/group_wi26_nameability/analysis/../data/raw_data/p0ant7uvweh_1772140282964.csv
NA,NA,NA,NA,NA,categorize-image,53,2.1.0,83733,p0ant7uvweh,hard,badger,554,a,stimuli/experiment1a/low_A_000.png,low,A,TRUE,/Users/martincz/GitHub/COGS119/group_wi26_nameability/analysis/../data/raw_data/p0ant7uvweh_1772140282964.csv
NA,NA,NA,NA,NA,html-keyboard-response,54,2.1.0,84236,p0ant7uvweh,hard,badger,null,null,"<div style=""font-size:60px;"">+</div>",NA,NA,NA,/Users/martincz/GitHub/COGS119/group_wi26_nameability/analysis/../data/raw_data/p0ant7uvweh_1772140282964.csv
NA,NA,NA,NA,NA,html-keyboard-response,55,2.1.0,84737,p0ant7uvweh,hard,badger,null,null,"<div style=""font-size:60px;"">+</div>",NA,NA,NA,/Users/martincz/GitHub/COGS119/group_wi26_nameability/analysis/../data/raw_data/p0ant7uvweh_1772140282964.csv
NA,NA,NA,NA,NA,categorize-image,56,2.1.0,87488,p0ant7uvweh,hard,badger,748,b,stimuli/experiment1a/low_B_111.png,low,B,TRUE,/Users/martincz/GitHub/COGS119/group_wi26_nameability/analysis/../data/raw_data/p0ant7uvweh_1772140282964.csv
NA,NA,NA,NA,NA,html-keyboard-response,57,2.1.0,87991,p0ant7uvweh,hard,badger,null,null,"<div style=""font-size:60px;"">+</div>",NA,NA,NA,/Users/martincz/GitHub/COGS119/group_wi26_nameability/analysis/../data/raw_data/p0ant7uvweh_1772140282964.csv
NA,NA,NA,NA,NA,html-keyboard-response,58,2.1.0,88493,p0ant7uvweh,hard,badger,null,null,"<div style=""font-size:60px;"">+</div>",NA,NA,NA,/Users/martincz/GitHub/COGS119/group_wi26_nameability/analysis/../data/raw_data/p0ant7uvweh_1772140282964.csv
NA,NA,NA,NA,NA,categorize-image,59,2.1.0,91133,p0ant7uvweh,hard,badger,636,a,stimuli/experiment1a/low_A_000.png,low,A,TRUE,/Users/martincz/GitHub/COGS119/group_wi26_nameability/analysis/../data/raw_data/p0ant7uvweh_1772140282964.csv
NA,NA,NA,NA,NA,html-keyboard-response,60,2.1.0,91635,p0ant7uvweh,hard,badger,null,null,"<div style=""font-size:60px;"">+</div>",NA,NA,NA,/Users/martincz/GitHub/COGS119/group_wi26_nameability/analysis/../data/raw_data/p0ant7uvweh_1772140282964.csv
NA,NA,NA,NA,NA,html-keyboard-response,61,2.1.0,92136,p0ant7uvweh,hard,badger,null,null,"<div style=""font-size:60px;"">+</div>",NA,NA,NA,/Users/martincz/GitHub/COGS119/group_wi26_nameability/analysis/../data/raw_data/p0ant7uvweh_1772140282964.csv
NA,NA,NA,NA,NA,categorize-image,62,2.1.0,94847,p0ant7uvweh,hard,badger,707,a,stimuli/experiment1a/low_B_110.png,low,B,FALSE,/Users/martincz/GitHub/COGS119/group_wi26_nameability/analysis/../data/raw_data/p0ant7uvweh_1772140282964.csv
NA,NA,NA,NA,NA,html-keyboard-response,63,2.1.0,95350,p0ant7uvweh,hard,badger,null,null,"<div style=""font-size:60px;"">+</div>",NA,NA,NA,/Users/martincz/GitHub/COGS119/group_wi26_nameability/analysis/../data/raw_data/p0ant7uvweh_1772140282964.csv
NA,NA,NA,NA,NA,categorize-image,64,2.1.0,97647,p0ant7uvweh,hard,badger,294,b,stimuli/experiment1a/low_B_110.png,low,B,TRUE,/Users/martincz/GitHub/COGS119/group_wi26_nameability/analysis/../data/raw_data/p0ant7uvweh_1772140282964.csv
NA,NA,NA,NA,NA,image-keyboard-response,65,null,98887,p0ant7uvweh,hard,badger,1238,q,stimuli/experiment_check.webp,NA,NA,NA,/Users/martincz/GitHub/COGS119/group_wi26_nameability/analysis/../data/raw_data/p0ant7uvweh_1772140282964.csv
NA,NA,NA,NA,NA,html-keyboard-response,66,2.1.0,100585,p0ant7uvweh,hard,badger,1697,Meta,<p>Fluffy blesses you. Good job!</p><p>Press any key to continue.</p>,NA,NA,NA,/Users/martincz/GitHub/COGS119/group_wi26_nameability/analysis/../data/raw_data/p0ant7uvweh_1772140282964.csv
NA,NA,NA,NA,NA,html-keyboard-response,67,2.1.0,102302,p0ant7uvweh,hard,badger,1716,Meta,<p><strong>TEST BLOCK 2 FINISHED</strong></p><p>Press any key to continue.</p>,NA,NA,NA,/Users/martincz/GitHub/COGS119/group_wi26_nameability/analysis/../data/raw_data/p0ant7uvweh_1772140282964.csv
NA,NA,NA,NA,NA,html-keyboard-response,68,2.1.0,102803,p0ant7uvweh,hard,badger,null,null,"<div style=""font-size:60px;"">+</div>",NA,NA,NA,/Users/martincz/GitHub/COGS119/group_wi26_nameability/analysis/../data/raw_data/p0ant7uvweh_1772140282964.csv
NA,NA,NA,NA,NA,html-keyboard-response,69,2.1.0,103305,p0ant7uvweh,hard,badger,null,null,"<div style=""font-size:60px;"">+</div>",NA,NA,NA,/Users/martincz/GitHub/COGS119/group_wi26_nameability/analysis/../data/raw_data/p0ant7uvweh_1772140282964.csv
NA,NA,NA,NA,NA,categorize-image,70,2.1.0,106293,p0ant7uvweh,hard,badger,986,a,stimuli/experiment1a/low_B_111.png,low,B,FALSE,/Users/martincz/GitHub/COGS119/group_wi26_nameability/analysis/../data/raw_data/p0ant7uvweh_1772140282964.csv
NA,NA,NA,NA,NA,html-keyboard-response,71,2.1.0,106796,p0ant7uvweh,hard,badger,null,null,"<div style=""font-size:60px;"">+</div>",NA,NA,NA,/Users/martincz/GitHub/COGS119/group_wi26_nameability/analysis/../data/raw_data/p0ant7uvweh_1772140282964.csv
NA,NA,NA,NA,NA,categorize-image,72,2.1.0,109229,p0ant7uvweh,hard,badger,430,b,stimuli/experiment1a/low_B_111.png,low,B,TRUE,/Users/martincz/GitHub/COGS119/group_wi26_nameability/analysis/../data/raw_data/p0ant7uvweh_1772140282964.csv
NA,NA,NA,NA,NA,html-keyboard-response,73,2.1.0,109731,p0ant7uvweh,hard,badger,null,null,"<div style=""font-size:60px;"">+</div>",NA,NA,NA,/Users/martincz/GitHub/COGS119/group_wi26_nameability/analysis/../data/raw_data/p0ant7uvweh_1772140282964.csv
NA,NA,NA,NA,NA,html-keyboard-response,74,2.1.0,110233,p0ant7uvweh,hard,badger,null,null,"<div style=""font-size:60px;"">+</div>",NA,NA,NA,/Users/martincz/GitHub/COGS119/group_wi26_nameability/analysis/../data/raw_data/p0ant7uvweh_1772140282964.csv
NA,NA,NA,NA,NA,categorize-image,75,2.1.0,112959,p0ant7uvweh,hard,badger,723,a,stimuli/experiment1a/low_A_000.png,low,A,TRUE,/Users/martincz/GitHub/COGS119/group_wi26_nameability/analysis/../data/raw_data/p0ant7uvweh_1772140282964.csv
NA,NA,NA,NA,NA,html-keyboard-response,76,2.1.0,113462,p0ant7uvweh,hard,badger,null,null,"<div style=""font-size:60px;"">+</div>",NA,NA,NA,/Users/martincz/GitHub/COGS119/group_wi26_nameability/analysis/../data/raw_data/p0ant7uvweh_1772140282964.csv
NA,NA,NA,NA,NA,html-keyboard-response,77,2.1.0,113963,p0ant7uvweh,hard,badger,null,null,"<div style=""font-size:60px;"">+</div>",NA,NA,NA,/Users/martincz/GitHub/COGS119/group_wi26_nameability/analysis/../data/raw_data/p0ant7uvweh_1772140282964.csv
NA,NA,NA,NA,NA,categorize-image,78,2.1.0,117004,p0ant7uvweh,hard,badger,1038,a,stimuli/experiment1a/low_B_101.png,low,B,FALSE,/Users/martincz/GitHub/COGS119/group_wi26_nameability/analysis/../data/raw_data/p0ant7uvweh_1772140282964.csv
NA,NA,NA,NA,NA,html-keyboard-response,79,2.1.0,117506,p0ant7uvweh,hard,badger,null,null,"<div style=""font-size:60px;"">+</div>",NA,NA,NA,/Users/martincz/GitHub/COGS119/group_wi26_nameability/analysis/../data/raw_data/p0ant7uvweh_1772140282964.csv
NA,NA,NA,NA,NA,categorize-image,80,2.1.0,119941,p0ant7uvweh,hard,badger,432,b,stimuli/experiment1a/low_B_101.png,low,B,TRUE,/Users/martincz/GitHub/COGS119/group_wi26_nameability/analysis/../data/raw_data/p0ant7uvweh_1772140282964.csv
NA,NA,NA,NA,NA,html-keyboard-response,81,2.1.0,120444,p0ant7uvweh,hard,badger,null,null,"<div style=""font-size:60px;"">+</div>",NA,NA,NA,/Users/martincz/GitHub/COGS119/group_wi26_nameability/analysis/../data/raw_data/p0ant7uvweh_1772140282964.csv
NA,NA,NA,NA,NA,html-keyboard-response,82,2.1.0,120945,p0ant7uvweh,hard,badger,null,null,"<div style=""font-size:60px;"">+</div>",NA,NA,NA,/Users/martincz/GitHub/COGS119/group_wi26_nameability/analysis/../data/raw_data/p0ant7uvweh_1772140282964.csv
NA,NA,NA,NA,NA,categorize-image,83,2.1.0,123699,p0ant7uvweh,hard,badger,751,a,stimuli/experiment1a/low_A_010.png,low,A,TRUE,/Users/martincz/GitHub/COGS119/group_wi26_nameability/analysis/../data/raw_data/p0ant7uvweh_1772140282964.csv
NA,NA,NA,NA,NA,html-keyboard-response,84,2.1.0,124202,p0ant7uvweh,hard,badger,null,null,"<div style=""font-size:60px;"">+</div>",NA,NA,NA,/Users/martincz/GitHub/COGS119/group_wi26_nameability/analysis/../data/raw_data/p0ant7uvweh_1772140282964.csv
NA,NA,NA,NA,NA,html-keyboard-response,85,2.1.0,124703,p0ant7uvweh,hard,badger,null,null,"<div style=""font-size:60px;"">+</div>",NA,NA,NA,/Users/martincz/GitHub/COGS119/group_wi26_nameability/analysis/../data/raw_data/p0ant7uvweh_1772140282964.csv
NA,NA,NA,NA,NA,categorize-image,86,2.1.0,127525,p0ant7uvweh,hard,badger,819,a,stimuli/experiment1a/low_B_110.png,low,B,FALSE,/Users/martincz/GitHub/COGS119/group_wi26_nameability/analysis/../data/raw_data/p0ant7uvweh_1772140282964.csv
NA,NA,NA,NA,NA,html-keyboard-response,87,2.1.0,128028,p0ant7uvweh,hard,badger,null,null,"<div style=""font-size:60px;"">+</div>",NA,NA,NA,/Users/martincz/GitHub/COGS119/group_wi26_nameability/analysis/../data/raw_data/p0ant7uvweh_1772140282964.csv
NA,NA,NA,NA,NA,categorize-image,88,2.1.0,130330,p0ant7uvweh,hard,badger,298,b,stimuli/experiment1a/low_B_110.png,low,B,TRUE,/Users/martincz/GitHub/COGS119/group_wi26_nameability/analysis/../data/raw_data/p0ant7uvweh_1772140282964.csv
NA,NA,NA,NA,NA,html-keyboard-response,89,2.1.0,130833,p0ant7uvweh,hard,badger,null,null,"<div style=""font-size:60px;"">+</div>",NA,NA,NA,/Users/martincz/GitHub/COGS119/group_wi26_nameability/analysis/../data/raw_data/p0ant7uvweh_1772140282964.csv
NA,NA,NA,NA,NA,html-keyboard-response,90,2.1.0,131334,p0ant7uvweh,hard,badger,null,null,"<div style=""font-size:60px;"">+</div>",NA,NA,NA,/Users/martincz/GitHub/COGS119/group_wi26_nameability/analysis/../data/raw_data/p0ant7uvweh_1772140282964.csv
NA,NA,NA,NA,NA,categorize-image,91,2.1.0,134347,p0ant7uvweh,hard,badger,1009,a,stimuli/experiment1a/low_A_000.png,low,A,TRUE,/Users/martincz/GitHub/COGS119/group_wi26_nameability/analysis/../data/raw_data/p0ant7uvweh_1772140282964.csv
NA,NA,NA,NA,NA,html-keyboard-response,92,2.1.0,134850,p0ant7uvweh,hard,badger,null,null,"<div style=""font-size:60px;"">+</div>",NA,NA,NA,/Users/martincz/GitHub/COGS119/group_wi26_nameability/analysis/../data/raw_data/p0ant7uvweh_1772140282964.csv
NA,NA,NA,NA,NA,html-keyboard-response,93,2.1.0,135351,p0ant7uvweh,hard,badger,null,null,"<div style=""font-size:60px;"">+</div>",NA,NA,NA,/Users/martincz/GitHub/COGS119/group_wi26_nameability/analysis/../data/raw_data/p0ant7uvweh_1772140282964.csv
NA,NA,NA,NA,NA,categorize-image,94,2.1.0,138165,p0ant7uvweh,hard,badger,811,a,stimuli/experiment1a/low_A_001.png,low,A,TRUE,/Users/martincz/GitHub/COGS119/group_wi26_nameability/analysis/../data/raw_data/p0ant7uvweh_1772140282964.csv
NA,NA,NA,NA,NA,html-keyboard-response,95,2.1.0,138668,p0ant7uvweh,hard,badger,null,null,"<div style=""font-size:60px;"">+</div>",NA,NA,NA,/Users/martincz/GitHub/COGS119/group_wi26_nameability/analysis/../data/raw_data/p0ant7uvweh_1772140282964.csv
NA,NA,NA,NA,NA,html-keyboard-response,96,2.1.0,139169,p0ant7uvweh,hard,badger,null,null,"<div style=""font-size:60px;"">+</div>",NA,NA,NA,/Users/martincz/GitHub/COGS119/group_wi26_nameability/analysis/../data/raw_data/p0ant7uvweh_1772140282964.csv
NA,NA,NA,NA,NA,categorize-image,97,2.1.0,141938,p0ant7uvweh,hard,badger,765,b,stimuli/experiment1a/low_B_111.png,low,B,TRUE,/Users/martincz/GitHub/COGS119/group_wi26_nameability/analysis/../data/raw_data/p0ant7uvweh_1772140282964.csv
NA,NA,NA,NA,NA,image-keyboard-response,98,null,143064,p0ant7uvweh,hard,badger,1124,q,stimuli/experiment_check.webp,NA,NA,NA,/Users/martincz/GitHub/COGS119/group_wi26_nameability/analysis/../data/raw_data/p0ant7uvweh_1772140282964.csv
NA,NA,NA,NA,NA,html-keyboard-response,99,2.1.0,144367,p0ant7uvweh,hard,badger,1302,Meta,<p>Fluffy blesses you. Good job!</p><p>Press any key to continue.</p>,NA,NA,NA,/Users/martincz/GitHub/COGS119/group_wi26_nameability/analysis/../data/raw_data/p0ant7uvweh_1772140282964.csv
NA,NA,NA,NA,NA,html-keyboard-response,100,2.1.0,145289,p0ant7uvweh,hard,badger,922,Meta,<p><strong>TEST BLOCK 3 FINISHED</strong></p><p>Press any key to continue.</p>,NA,NA,NA,/Users/martincz/GitHub/COGS119/group_wi26_nameability/analysis/../data/raw_data/p0ant7uvweh_1772140282964.csv
NA,NA,NA,NA,NA,html-keyboard-response,101,2.1.0,145790,p0ant7uvweh,hard,badger,null,null,"<div style=""font-size:60px;"">+</div>",NA,NA,NA,/Users/martincz/GitHub/COGS119/group_wi26_nameability/analysis/../data/raw_data/p0ant7uvweh_1772140282964.csv
NA,NA,NA,NA,NA,html-keyboard-response,102,2.1.0,146293,p0ant7uvweh,hard,badger,null,null,"<div style=""font-size:60px;"">+</div>",NA,NA,NA,/Users/martincz/GitHub/COGS119/group_wi26_nameability/analysis/../data/raw_data/p0ant7uvweh_1772140282964.csv
NA,NA,NA,NA,NA,categorize-image,103,2.1.0,149176,p0ant7uvweh,hard,badger,879,b,stimuli/experiment1a/low_B_110.png,low,B,TRUE,/Users/martincz/GitHub/COGS119/group_wi26_nameability/analysis/../data/raw_data/p0ant7uvweh_1772140282964.csv
NA,NA,NA,NA,NA,html-keyboard-response,104,2.1.0,149678,p0ant7uvweh,hard,badger,null,null,"<div style=""font-size:60px;"">+</div>",NA,NA,NA,/Users/martincz/GitHub/COGS119/group_wi26_nameability/analysis/../data/raw_data/p0ant7uvweh_1772140282964.csv
NA,NA,NA,NA,NA,html-keyboard-response,105,2.1.0,150180,p0ant7uvweh,hard,badger,null,null,"<div style=""font-size:60px;"">+</div>",NA,NA,NA,/Users/martincz/GitHub/COGS119/group_wi26_nameability/analysis/../data/raw_data/p0ant7uvweh_1772140282964.csv
NA,NA,NA,NA,NA,categorize-image,106,2.1.0,152914,p0ant7uvweh,hard,badger,730,a,stimuli/experiment1a/low_A_010.png,low,A,TRUE,/Users/martincz/GitHub/COGS119/group_wi26_nameability/analysis/../data/raw_data/p0ant7uvweh_1772140282964.csv
NA,NA,NA,NA,NA,html-keyboard-response,107,2.1.0,153416,p0ant7uvweh,hard,badger,null,null,"<div style=""font-size:60px;"">+</div>",NA,NA,NA,/Users/martincz/GitHub/COGS119/group_wi26_nameability/analysis/../data/raw_data/p0ant7uvweh_1772140282964.csv
NA,NA,NA,NA,NA,html-keyboard-response,108,2.1.0,153918,p0ant7uvweh,hard,badger,null,null,"<div style=""font-size:60px;"">+</div>",NA,NA,NA,/Users/martincz/GitHub/COGS119/group_wi26_nameability/analysis/../data/raw_data/p0ant7uvweh_1772140282964.csv
NA,NA,NA,NA,NA,categorize-image,109,2.1.0,156723,p0ant7uvweh,hard,badger,801,a,stimuli/experiment1a/low_A_000.png,low,A,TRUE,/Users/martincz/GitHub/COGS119/group_wi26_nameability/analysis/../data/raw_data/p0ant7uvweh_1772140282964.csv
NA,NA,NA,NA,NA,html-keyboard-response,110,2.1.0,157225,p0ant7uvweh,hard,badger,null,null,"<div style=""font-size:60px;"">+</div>",NA,NA,NA,/Users/martincz/GitHub/COGS119/group_wi26_nameability/analysis/../data/raw_data/p0ant7uvweh_1772140282964.csv
NA,NA,NA,NA,NA,html-keyboard-response,111,2.1.0,157727,p0ant7uvweh,hard,badger,null,null,"<div style=""font-size:60px;"">+</div>",NA,NA,NA,/Users/martincz/GitHub/COGS119/group_wi26_nameability/analysis/../data/raw_data/p0ant7uvweh_1772140282964.csv
NA,NA,NA,NA,NA,categorize-image,112,2.1.0,160440,p0ant7uvweh,hard,badger,711,b,stimuli/experiment1a/low_B_101.png,low,B,TRUE,/Users/martincz/GitHub/COGS119/group_wi26_nameability/analysis/../data/raw_data/p0ant7uvweh_1772140282964.csv
NA,NA,NA,NA,NA,html-keyboard-response,113,2.1.0,160943,p0ant7uvweh,hard,badger,null,null,"<div style=""font-size:60px;"">+</div>",NA,NA,NA,/Users/martincz/GitHub/COGS119/group_wi26_nameability/analysis/../data/raw_data/p0ant7uvweh_1772140282964.csv
NA,NA,NA,NA,NA,html-keyboard-response,114,2.1.0,161444,p0ant7uvweh,hard,badger,null,null,"<div style=""font-size:60px;"">+</div>",NA,NA,NA,/Users/martincz/GitHub/COGS119/group_wi26_nameability/analysis/../data/raw_data/p0ant7uvweh_1772140282964.csv
NA,NA,NA,NA,NA,categorize-image,115,2.1.0,163951,p0ant7uvweh,hard,badger,504,a,stimuli/experiment1a/low_A_000.png,low,A,TRUE,/Users/martincz/GitHub/COGS119/group_wi26_nameability/analysis/../data/raw_data/p0ant7uvweh_1772140282964.csv
NA,NA,NA,NA,NA,html-keyboard-response,116,2.1.0,164454,p0ant7uvweh,hard,badger,null,null,"<div style=""font-size:60px;"">+</div>",NA,NA,NA,/Users/martincz/GitHub/COGS119/group_wi26_nameability/analysis/../data/raw_data/p0ant7uvweh_1772140282964.csv
NA,NA,NA,NA,NA,html-keyboard-response,117,2.1.0,164955,p0ant7uvweh,hard,badger,null,null,"<div style=""font-size:60px;"">+</div>",NA,NA,NA,/Users/martincz/GitHub/COGS119/group_wi26_nameability/analysis/../data/raw_data/p0ant7uvweh_1772140282964.csv
NA,NA,NA,NA,NA,categorize-image,118,2.1.0,167451,p0ant7uvweh,hard,badger,493,a,stimuli/experiment1a/low_A_001.png,low,A,TRUE,/Users/martincz/GitHub/COGS119/group_wi26_nameability/analysis/../data/raw_data/p0ant7uvweh_1772140282964.csv
NA,NA,NA,NA,NA,html-keyboard-response,119,2.1.0,167953,p0ant7uvweh,hard,badger,null,null,"<div style=""font-size:60px;"">+</div>",NA,NA,NA,/Users/martincz/GitHub/COGS119/group_wi26_nameability/analysis/../data/raw_data/p0ant7uvweh_1772140282964.csv
NA,NA,NA,NA,NA,html-keyboard-response,120,2.1.0,168454,p0ant7uvweh,hard,badger,null,null,"<div style=""font-size:60px;"">+</div>",NA,NA,NA,/Users/martincz/GitHub/COGS119/group_wi26_nameability/analysis/../data/raw_data/p0ant7uvweh_1772140282964.csv
NA,NA,NA,NA,NA,categorize-image,121,2.1.0,171120,p0ant7uvweh,hard,badger,662,b,stimuli/experiment1a/low_B_111.png,low,B,TRUE,/Users/martincz/GitHub/COGS119/group_wi26_nameability/analysis/../data/raw_data/p0ant7uvweh_1772140282964.csv
NA,NA,NA,NA,NA,html-keyboard-response,122,2.1.0,171623,p0ant7uvweh,hard,badger,null,null,"<div style=""font-size:60px;"">+</div>",NA,NA,NA,/Users/martincz/GitHub/COGS119/group_wi26_nameability/analysis/../data/raw_data/p0ant7uvweh_1772140282964.csv
NA,NA,NA,NA,NA,html-keyboard-response,123,2.1.0,172125,p0ant7uvweh,hard,badger,null,null,"<div style=""font-size:60px;"">+</div>",NA,NA,NA,/Users/martincz/GitHub/COGS119/group_wi26_nameability/analysis/../data/raw_data/p0ant7uvweh_1772140282964.csv
NA,NA,NA,NA,NA,categorize-image,124,2.1.0,174977,p0ant7uvweh,hard,badger,849,a,stimuli/experiment1a/low_B_111.png,low,B,FALSE,/Users/martincz/GitHub/COGS119/group_wi26_nameability/analysis/../data/raw_data/p0ant7uvweh_1772140282964.csv
NA,NA,NA,NA,NA,html-keyboard-response,125,2.1.0,175479,p0ant7uvweh,hard,badger,null,null,"<div style=""font-size:60px;"">+</div>",NA,NA,NA,/Users/martincz/GitHub/COGS119/group_wi26_nameability/analysis/../data/raw_data/p0ant7uvweh_1772140282964.csv
NA,NA,NA,NA,NA,categorize-image,126,2.1.0,177820,p0ant7uvweh,hard,badger,338,b,stimuli/experiment1a/low_B_111.png,low,B,TRUE,/Users/martincz/GitHub/COGS119/group_wi26_nameability/analysis/../data/raw_data/p0ant7uvweh_1772140282964.csv
NA,NA,NA,NA,NA,image-keyboard-response,127,null,178901,p0ant7uvweh,hard,badger,1079,q,stimuli/experiment_check.webp,NA,NA,NA,/Users/martincz/GitHub/COGS119/group_wi26_nameability/analysis/../data/raw_data/p0ant7uvweh_1772140282964.csv
NA,NA,NA,NA,NA,html-keyboard-response,128,2.1.0,180015,p0ant7uvweh,hard,badger,1113,Meta,<p>Fluffy blesses you. Good job!</p><p>Press any key to continue.</p>,NA,NA,NA,/Users/martincz/GitHub/COGS119/group_wi26_nameability/analysis/../data/raw_data/p0ant7uvweh_1772140282964.csv
NA,NA,NA,NA,NA,html-keyboard-response,129,2.1.0,180765,p0ant7uvweh,hard,badger,750,Meta,<p><strong>TEST BLOCK 4 FINISHED</strong></p><p>Press any key to continue.</p>,NA,NA,NA,/Users/martincz/GitHub/COGS119/group_wi26_nameability/analysis/../data/raw_data/p0ant7uvweh_1772140282964.csv
NA,NA,NA,NA,NA,html-keyboard-response,130,2.1.0,181266,p0ant7uvweh,hard,badger,null,null,"<div style=""font-size:60px;"">+</div>",NA,NA,NA,/Users/martincz/GitHub/COGS119/group_wi26_nameability/analysis/../data/raw_data/p0ant7uvweh_1772140282964.csv
NA,NA,NA,NA,NA,html-keyboard-response,131,2.1.0,181768,p0ant7uvweh,hard,badger,null,null,"<div style=""font-size:60px;"">+</div>",NA,NA,NA,/Users/martincz/GitHub/COGS119/group_wi26_nameability/analysis/../data/raw_data/p0ant7uvweh_1772140282964.csv
NA,NA,NA,NA,NA,categorize-image,132,2.1.0,184668,p0ant7uvweh,hard,badger,896,b,stimuli/experiment1a/low_B_110.png,low,B,TRUE,/Users/martincz/GitHub/COGS119/group_wi26_nameability/analysis/../data/raw_data/p0ant7uvweh_1772140282964.csv
NA,NA,NA,NA,NA,html-keyboard-response,133,2.1.0,185170,p0ant7uvweh,hard,badger,null,null,"<div style=""font-size:60px;"">+</div>",NA,NA,NA,/Users/martincz/GitHub/COGS119/group_wi26_nameability/analysis/../data/raw_data/p0ant7uvweh_1772140282964.csv
NA,NA,NA,NA,NA,html-keyboard-response,134,2.1.0,185671,p0ant7uvweh,hard,badger,null,null,"<div style=""font-size:60px;"">+</div>",NA,NA,NA,/Users/martincz/GitHub/COGS119/group_wi26_nameability/analysis/../data/raw_data/p0ant7uvweh_1772140282964.csv
NA,NA,NA,NA,NA,categorize-image,135,2.1.0,188396,p0ant7uvweh,hard,badger,722,a,stimuli/experiment1a/low_A_000.png,low,A,TRUE,/Users/martincz/GitHub/COGS119/group_wi26_nameability/analysis/../data/raw_data/p0ant7uvweh_1772140282964.csv
NA,NA,NA,NA,NA,html-keyboard-response,136,2.1.0,188899,p0ant7uvweh,hard,badger,null,null,"<div style=""font-size:60px;"">+</div>",NA,NA,NA,/Users/martincz/GitHub/COGS119/group_wi26_nameability/analysis/../data/raw_data/p0ant7uvweh_1772140282964.csv
NA,NA,NA,NA,NA,html-keyboard-response,137,2.1.0,189400,p0ant7uvweh,hard,badger,null,null,"<div style=""font-size:60px;"">+</div>",NA,NA,NA,/Users/martincz/GitHub/COGS119/group_wi26_nameability/analysis/../data/raw_data/p0ant7uvweh_1772140282964.csv
NA,NA,NA,NA,NA,categorize-image,138,2.1.0,192050,p0ant7uvweh,hard,badger,647,b,stimuli/experiment1a/low_B_111.png,low,B,TRUE,/Users/martincz/GitHub/COGS119/group_wi26_nameability/analysis/../data/raw_data/p0ant7uvweh_1772140282964.csv
NA,NA,NA,NA,NA,html-keyboard-response,139,2.1.0,192552,p0ant7uvweh,hard,badger,null,null,"<div style=""font-size:60px;"">+</div>",NA,NA,NA,/Users/martincz/GitHub/COGS119/group_wi26_nameability/analysis/../data/raw_data/p0ant7uvweh_1772140282964.csv
NA,NA,NA,NA,NA,html-keyboard-response,140,2.1.0,193054,p0ant7uvweh,hard,badger,null,null,"<div style=""font-size:60px;"">+</div>",NA,NA,NA,/Users/martincz/GitHub/COGS119/group_wi26_nameability/analysis/../data/raw_data/p0ant7uvweh_1772140282964.csv
NA,NA,NA,NA,NA,categorize-image,141,2.1.0,195840,p0ant7uvweh,hard,badger,783,b,stimuli/experiment1a/low_B_101.png,low,B,TRUE,/Users/martincz/GitHub/COGS119/group_wi26_nameability/analysis/../data/raw_data/p0ant7uvweh_1772140282964.csv
NA,NA,NA,NA,NA,html-keyboard-response,142,2.1.0,196343,p0ant7uvweh,hard,badger,null,null,"<div style=""font-size:60px;"">+</div>",NA,NA,NA,/Users/martincz/GitHub/COGS119/group_wi26_nameability/analysis/../data/raw_data/p0ant7uvweh_1772140282964.csv
NA,NA,NA,NA,NA,html-keyboard-response,143,2.1.0,196844,p0ant7uvweh,hard,badger,null,null,"<div style=""font-size:60px;"">+</div>",NA,NA,NA,/Users/martincz/GitHub/COGS119/group_wi26_nameability/analysis/../data/raw_data/p0ant7uvweh_1772140282964.csv
NA,NA,NA,NA,NA,categorize-image,144,2.1.0,199437,p0ant7uvweh,hard,badger,589,b,stimuli/experiment1a/low_A_001.png,low,A,FALSE,/Users/martincz/GitHub/COGS119/group_wi26_nameability/analysis/../data/raw_data/p0ant7uvweh_1772140282964.csv
NA,NA,NA,NA,NA,html-keyboard-response,145,2.1.0,199940,p0ant7uvweh,hard,badger,null,null,"<div style=""font-size:60px;"">+</div>",NA,NA,NA,/Users/martincz/GitHub/COGS119/group_wi26_nameability/analysis/../data/raw_data/p0ant7uvweh_1772140282964.csv
NA,NA,NA,NA,NA,categorize-image,146,2.1.0,202233,p0ant7uvweh,hard,badger,291,a,stimuli/experiment1a/low_A_001.png,low,A,TRUE,/Users/martincz/GitHub/COGS119/group_wi26_nameability/analysis/../data/raw_data/p0ant7uvweh_1772140282964.csv
NA,NA,NA,NA,NA,html-keyboard-response,147,2.1.0,202735,p0ant7uvweh,hard,badger,null,null,"<div style=""font-size:60px;"">+</div>",NA,NA,NA,/Users/martincz/GitHub/COGS119/group_wi26_nameability/analysis/../data/raw_data/p0ant7uvweh_1772140282964.csv
NA,NA,NA,NA,NA,html-keyboard-response,148,2.1.0,203237,p0ant7uvweh,hard,badger,null,null,"<div style=""font-size:60px;"">+</div>",NA,NA,NA,/Users/martincz/GitHub/COGS119/group_wi26_nameability/analysis/../data/raw_data/p0ant7uvweh_1772140282964.csv
NA,NA,NA,NA,NA,categorize-image,149,2.1.0,206080,p0ant7uvweh,hard,badger,840,a,stimuli/experiment1a/low_A_010.png,low,A,TRUE,/Users/martincz/GitHub/COGS119/group_wi26_nameability/analysis/../data/raw_data/p0ant7uvweh_1772140282964.csv
NA,NA,NA,NA,NA,html-keyboard-response,150,2.1.0,206583,p0ant7uvweh,hard,badger,null,null,"<div style=""font-size:60px;"">+</div>",NA,NA,NA,/Users/martincz/GitHub/COGS119/group_wi26_nameability/analysis/../data/raw_data/p0ant7uvweh_1772140282964.csv
NA,NA,NA,NA,NA,html-keyboard-response,151,2.1.0,207084,p0ant7uvweh,hard,badger,null,null,"<div style=""font-size:60px;"">+</div>",NA,NA,NA,/Users/martincz/GitHub/COGS119/group_wi26_nameability/analysis/../data/raw_data/p0ant7uvweh_1772140282964.csv
NA,NA,NA,NA,NA,categorize-image,152,2.1.0,209689,p0ant7uvweh,hard,badger,602,b,stimuli/experiment1a/low_B_111.png,low,B,TRUE,/Users/martincz/GitHub/COGS119/group_wi26_nameability/analysis/../data/raw_data/p0ant7uvweh_1772140282964.csv
NA,NA,NA,NA,NA,html-keyboard-response,153,2.1.0,210193,p0ant7uvweh,hard,badger,null,null,"<div style=""font-size:60px;"">+</div>",NA,NA,NA,/Users/martincz/GitHub/COGS119/group_wi26_nameability/analysis/../data/raw_data/p0ant7uvweh_1772140282964.csv
NA,NA,NA,NA,NA,html-keyboard-response,154,2.1.0,210694,p0ant7uvweh,hard,badger,null,null,"<div style=""font-size:60px;"">+</div>",NA,NA,NA,/Users/martincz/GitHub/COGS119/group_wi26_nameability/analysis/../data/raw_data/p0ant7uvweh_1772140282964.csv
NA,NA,NA,NA,NA,categorize-image,155,2.1.0,213370,p0ant7uvweh,hard,badger,673,a,stimuli/experiment1a/low_A_000.png,low,A,TRUE,/Users/martincz/GitHub/COGS119/group_wi26_nameability/analysis/../data/raw_data/p0ant7uvweh_1772140282964.csv
NA,NA,NA,NA,NA,image-keyboard-response,156,null,214525,p0ant7uvweh,hard,badger,1153,q,stimuli/experiment_check.webp,NA,NA,NA,/Users/martincz/GitHub/COGS119/group_wi26_nameability/analysis/../data/raw_data/p0ant7uvweh_1772140282964.csv
NA,NA,NA,NA,NA,html-keyboard-response,157,2.1.0,215554,p0ant7uvweh,hard,badger,1027,Meta,<p>Fluffy blesses you. Good job!</p><p>Press any key to continue.</p>,NA,NA,NA,/Users/martincz/GitHub/COGS119/group_wi26_nameability/analysis/../data/raw_data/p0ant7uvweh_1772140282964.csv
NA,NA,NA,NA,NA,html-keyboard-response,158,2.1.0,216239,p0ant7uvweh,hard,badger,684,Meta,<p><strong>TEST BLOCK 5 FINISHED</strong></p><p>Press any key to continue.</p>,NA,NA,NA,/Users/martincz/GitHub/COGS119/group_wi26_nameability/analysis/../data/raw_data/p0ant7uvweh_1772140282964.csv
NA,NA,NA,NA,NA,html-keyboard-response,159,2.1.0,216741,p0ant7uvweh,hard,badger,null,null,"<div style=""font-size:60px;"">+</div>",NA,NA,NA,/Users/martincz/GitHub/COGS119/group_wi26_nameability/analysis/../data/raw_data/p0ant7uvweh_1772140282964.csv
NA,NA,NA,NA,NA,html-keyboard-response,160,2.1.0,217243,p0ant7uvweh,hard,badger,null,null,"<div style=""font-size:60px;"">+</div>",NA,NA,NA,/Users/martincz/GitHub/COGS119/group_wi26_nameability/analysis/../data/raw_data/p0ant7uvweh_1772140282964.csv
NA,NA,NA,NA,NA,categorize-image,161,2.1.0,220090,p0ant7uvweh,hard,badger,843,b,stimuli/experiment1a/low_B_101.png,low,B,TRUE,/Users/martincz/GitHub/COGS119/group_wi26_nameability/analysis/../data/raw_data/p0ant7uvweh_1772140282964.csv
NA,NA,NA,NA,NA,html-keyboard-response,162,2.1.0,220592,p0ant7uvweh,hard,badger,null,null,"<div style=""font-size:60px;"">+</div>",NA,NA,NA,/Users/martincz/GitHub/COGS119/group_wi26_nameability/analysis/../data/raw_data/p0ant7uvweh_1772140282964.csv
NA,NA,NA,NA,NA,html-keyboard-response,163,2.1.0,221094,p0ant7uvweh,hard,badger,null,null,"<div style=""font-size:60px;"">+</div>",NA,NA,NA,/Users/martincz/GitHub/COGS119/group_wi26_nameability/analysis/../data/raw_data/p0ant7uvweh_1772140282964.csv
NA,NA,NA,NA,NA,categorize-image,164,2.1.0,223957,p0ant7uvweh,hard,badger,860,b,stimuli/experiment1a/low_B_111.png,low,B,TRUE,/Users/martincz/GitHub/COGS119/group_wi26_nameability/analysis/../data/raw_data/p0ant7uvweh_1772140282964.csv
NA,NA,NA,NA,NA,html-keyboard-response,165,2.1.0,224460,p0ant7uvweh,hard,badger,null,null,"<div style=""font-size:60px;"">+</div>",NA,NA,NA,/Users/martincz/GitHub/COGS119/group_wi26_nameability/analysis/../data/raw_data/p0ant7uvweh_1772140282964.csv
NA,NA,NA,NA,NA,html-keyboard-response,166,2.1.0,224962,p0ant7uvweh,hard,badger,null,null,"<div style=""font-size:60px;"">+</div>",NA,NA,NA,/Users/martincz/GitHub/COGS119/group_wi26_nameability/analysis/../data/raw_data/p0ant7uvweh_1772140282964.csv
NA,NA,NA,NA,NA,categorize-image,167,2.1.0,227894,p0ant7uvweh,hard,badger,929,b,stimuli/experiment1a/low_A_010.png,low,A,FALSE,/Users/martincz/GitHub/COGS119/group_wi26_nameability/analysis/../data/raw_data/p0ant7uvweh_1772140282964.csv
NA,NA,NA,NA,NA,html-keyboard-response,168,2.1.0,228397,p0ant7uvweh,hard,badger,null,null,"<div style=""font-size:60px;"">+</div>",NA,NA,NA,/Users/martincz/GitHub/COGS119/group_wi26_nameability/analysis/../data/raw_data/p0ant7uvweh_1772140282964.csv
NA,NA,NA,NA,NA,categorize-image,169,2.1.0,230678,p0ant7uvweh,hard,badger,278,a,stimuli/experiment1a/low_A_010.png,low,A,TRUE,/Users/martincz/GitHub/COGS119/group_wi26_nameability/analysis/../data/raw_data/p0ant7uvweh_1772140282964.csv
NA,NA,NA,NA,NA,html-keyboard-response,170,2.1.0,231181,p0ant7uvweh,hard,badger,null,null,"<div style=""font-size:60px;"">+</div>",NA,NA,NA,/Users/martincz/GitHub/COGS119/group_wi26_nameability/analysis/../data/raw_data/p0ant7uvweh_1772140282964.csv
NA,NA,NA,NA,NA,html-keyboard-response,171,2.1.0,231683,p0ant7uvweh,hard,badger,null,null,"<div style=""font-size:60px;"">+</div>",NA,NA,NA,/Users/martincz/GitHub/COGS119/group_wi26_nameability/analysis/../data/raw_data/p0ant7uvweh_1772140282964.csv
NA,NA,NA,NA,NA,categorize-image,172,2.1.0,234449,p0ant7uvweh,hard,badger,764,a,stimuli/experiment1a/low_A_001.png,low,A,TRUE,/Users/martincz/GitHub/COGS119/group_wi26_nameability/analysis/../data/raw_data/p0ant7uvweh_1772140282964.csv
NA,NA,NA,NA,NA,html-keyboard-response,173,2.1.0,234952,p0ant7uvweh,hard,badger,null,null,"<div style=""font-size:60px;"">+</div>",NA,NA,NA,/Users/martincz/GitHub/COGS119/group_wi26_nameability/analysis/../data/raw_data/p0ant7uvweh_1772140282964.csv
NA,NA,NA,NA,NA,html-keyboard-response,174,2.1.0,235453,p0ant7uvweh,hard,badger,null,null,"<div style=""font-size:60px;"">+</div>",NA,NA,NA,/Users/martincz/GitHub/COGS119/group_wi26_nameability/analysis/../data/raw_data/p0ant7uvweh_1772140282964.csv
NA,NA,NA,NA,NA,categorize-image,175,2.1.0,238071,p0ant7uvweh,hard,badger,615,a,stimuli/experiment1a/low_A_000.png,low,A,TRUE,/Users/martincz/GitHub/COGS119/group_wi26_nameability/analysis/../data/raw_data/p0ant7uvweh_1772140282964.csv
NA,NA,NA,NA,NA,html-keyboard-response,176,2.1.0,238574,p0ant7uvweh,hard,badger,null,null,"<div style=""font-size:60px;"">+</div>",NA,NA,NA,/Users/martincz/GitHub/COGS119/group_wi26_nameability/analysis/../data/raw_data/p0ant7uvweh_1772140282964.csv
NA,NA,NA,NA,NA,html-keyboard-response,177,2.1.0,239075,p0ant7uvweh,hard,badger,null,null,"<div style=""font-size:60px;"">+</div>",NA,NA,NA,/Users/martincz/GitHub/COGS119/group_wi26_nameability/analysis/../data/raw_data/p0ant7uvweh_1772140282964.csv
NA,NA,NA,NA,NA,categorize-image,178,2.1.0,241647,p0ant7uvweh,hard,badger,569,b,stimuli/experiment1a/low_B_111.png,low,B,TRUE,/Users/martincz/GitHub/COGS119/group_wi26_nameability/analysis/../data/raw_data/p0ant7uvweh_1772140282964.csv
NA,NA,NA,NA,NA,html-keyboard-response,179,2.1.0,242150,p0ant7uvweh,hard,badger,null,null,"<div style=""font-size:60px;"">+</div>",NA,NA,NA,/Users/martincz/GitHub/COGS119/group_wi26_nameability/analysis/../data/raw_data/p0ant7uvweh_1772140282964.csv
NA,NA,NA,NA,NA,html-keyboard-response,180,2.1.0,242651,p0ant7uvweh,hard,badger,null,null,"<div style=""font-size:60px;"">+</div>",NA,NA,NA,/Users/martincz/GitHub/COGS119/group_wi26_nameability/analysis/../data/raw_data/p0ant7uvweh_1772140282964.csv
NA,NA,NA,NA,NA,categorize-image,181,2.1.0,245689,p0ant7uvweh,hard,badger,1034,b,stimuli/experiment1a/low_B_110.png,low,B,TRUE,/Users/martincz/GitHub/COGS119/group_wi26_nameability/analysis/../data/raw_data/p0ant7uvweh_1772140282964.csv
NA,NA,NA,NA,NA,html-keyboard-response,182,2.1.0,246192,p0ant7uvweh,hard,badger,null,null,"<div style=""font-size:60px;"">+</div>",NA,NA,NA,/Users/martincz/GitHub/COGS119/group_wi26_nameability/analysis/../data/raw_data/p0ant7uvweh_1772140282964.csv
NA,NA,NA,NA,NA,html-keyboard-response,183,2.1.0,246693,p0ant7uvweh,hard,badger,null,null,"<div style=""font-size:60px;"">+</div>",NA,NA,NA,/Users/martincz/GitHub/COGS119/group_wi26_nameability/analysis/../data/raw_data/p0ant7uvweh_1772140282964.csv
NA,NA,NA,NA,NA,categorize-image,184,2.1.0,249287,p0ant7uvweh,hard,badger,590,a,stimuli/experiment1a/low_A_000.png,low,A,TRUE,/Users/martincz/GitHub/COGS119/group_wi26_nameability/analysis/../data/raw_data/p0ant7uvweh_1772140282964.csv
NA,NA,NA,NA,NA,image-keyboard-response,185,null,250228,p0ant7uvweh,hard,badger,939,q,stimuli/experiment_check.webp,NA,NA,NA,/Users/martincz/GitHub/COGS119/group_wi26_nameability/analysis/../data/raw_data/p0ant7uvweh_1772140282964.csv
NA,NA,NA,NA,NA,html-keyboard-response,186,2.1.0,252230,p0ant7uvweh,hard,badger,null,null,<p>Fluffy blesses you. Good job!</p><p>Press any key to continue.</p>,NA,NA,NA,/Users/martincz/GitHub/COGS119/group_wi26_nameability/analysis/../data/raw_data/p0ant7uvweh_1772140282964.csv
NA,NA,NA,NA,NA,html-keyboard-response,187,2.1.0,254113,p0ant7uvweh,hard,badger,1882,Meta,<p><strong>TEST BLOCK 6 FINISHED</strong></p><p>Press any key to continue.</p>,NA,NA,NA,/Users/martincz/GitHub/COGS119/group_wi26_nameability/analysis/../data/raw_data/p0ant7uvweh_1772140282964.csv
NA,NA,NA,NA,NA,survey-text,188,2.1.0,330162,p0ant7uvweh,hard,badger,76044,"{""Language"":""Yes"",""Art_background"":""Digital art and illustration"",""Strategy"":""Feeling the \""vibe\"" or \""feel\"" of the three colors helps differentiate each of them from each other. Also, feeling whether the overall palette feels cool or warm helps. I think warmer palettes were more category A while cooler palettes were more category B.""}",NA,NA,NA,NA,/Users/martincz/GitHub/COGS119/group_wi26_nameability/analysis/../data/raw_data/p0ant7uvweh_1772140282964.csv
NA,NA,NA,NA,NA,survey-text,189,2.1.0,366674,p0ant7uvweh,hard,badger,36511,"{""Issues"":""No"",""Why_experiment"":""Statistical learning of sorting things into categories with feedback and corrections trials."",""Extra_info"":""No but Fluffy is cute!""}",NA,NA,NA,NA,/Users/martincz/GitHub/COGS119/group_wi26_nameability/analysis/../data/raw_data/p0ant7uvweh_1772140282964.csv
TRUE,FALSE,[],[],[],preload,0,2.1.0,104,p1902plwm5c,hard2,lemur,NA,NA,NA,NA,NA,NA,/Users/martincz/GitHub/COGS119/group_wi26_nameability/analysis/../data/raw_data/p1902plwm5c_1772139713639.csv
TRUE,NA,NA,NA,NA,fullscreen,1,2.1.0,649298,p1902plwm5c,hard2,lemur,648191,NA,NA,NA,NA,NA,/Users/martincz/GitHub/COGS119/group_wi26_nameability/analysis/../data/raw_data/p1902plwm5c_1772139713639.csv
NA,NA,NA,NA,NA,survey-text,2,2.1.0,651120,p1902plwm5c,hard2,lemur,1819,"{""participant_id"":""lemur""}",NA,NA,NA,NA,/Users/martincz/GitHub/COGS119/group_wi26_nameability/analysis/../data/raw_data/p1902plwm5c_1772139713639.csv
NA,NA,NA,NA,NA,html-keyboard-response,3,2.1.0,694308,p1902plwm5c,hard2,lemur,43187,NA,"
     <p> Welcome to the experiment! </p>

     <p> In this experiment, you will see a series of images. </p>
     <p> Your task is to categorize each image into one of two categories (A and B) as quickly and accurately as possible. </p>
     <p> You will receive feedback after each response. If you get the category wrong, you will be asked to choose the category again</p>
",NA,NA,NA,/Users/martincz/GitHub/COGS119/group_wi26_nameability/analysis/../data/raw_data/p1902plwm5c_1772139713639.csv
NA,NA,NA,NA,NA,html-keyboard-response,4,2.1.0,694811,p1902plwm5c,hard2,lemur,null,null,"<div style=""font-size:60px;"">+</div>",NA,NA,NA,/Users/martincz/GitHub/COGS119/group_wi26_nameability/analysis/../data/raw_data/p1902plwm5c_1772139713639.csv
NA,NA,NA,NA,NA,html-keyboard-response,5,2.1.0,695315,p1902plwm5c,hard2,lemur,null,null,"<div style=""font-size:60px;"">+</div>",NA,NA,NA,/Users/martincz/GitHub/COGS119/group_wi26_nameability/analysis/../data/raw_data/p1902plwm5c_1772139713639.csv
NA,NA,NA,NA,NA,categorize-image,6,2.1.0,702538,p1902plwm5c,hard2,lemur,5220,a,stimuli/experiment1a/low_B_111.png,low,A,TRUE,/Users/martincz/GitHub/COGS119/group_wi26_nameability/analysis/../data/raw_data/p1902plwm5c_1772139713639.csv
NA,NA,NA,NA,NA,html-keyboard-response,7,2.1.0,703043,p1902plwm5c,hard2,lemur,null,null,"<div style=""font-size:60px;"">+</div>",NA,NA,NA,/Users/martincz/GitHub/COGS119/group_wi26_nameability/analysis/../data/raw_data/p1902plwm5c_1772139713639.csv
NA,NA,NA,NA,NA,html-keyboard-response,8,2.1.0,703545,p1902plwm5c,hard2,lemur,null,null,"<div style=""font-size:60px;"">+</div>",NA,NA,NA,/Users/martincz/GitHub/COGS119/group_wi26_nameability/analysis/../data/raw_data/p1902plwm5c_1772139713639.csv
NA,NA,NA,NA,NA,categorize-image,9,2.1.0,706611,p1902plwm5c,hard2,lemur,1061,a,stimuli/experiment1a/low_B_101.png,low,A,TRUE,/Users/martincz/GitHub/COGS119/group_wi26_nameability/analysis/../data/raw_data/p1902plwm5c_1772139713639.csv
NA,NA,NA,NA,NA,html-keyboard-response,10,2.1.0,707114,p1902plwm5c,hard2,lemur,null,null,"<div style=""font-size:60px;"">+</div>",NA,NA,NA,/Users/martincz/GitHub/COGS119/group_wi26_nameability/analysis/../data/raw_data/p1902plwm5c_1772139713639.csv
NA,NA,NA,NA,NA,html-keyboard-response,11,2.1.0,707615,p1902plwm5c,hard2,lemur,null,null,"<div style=""font-size:60px;"">+</div>",NA,NA,NA,/Users/martincz/GitHub/COGS119/group_wi26_nameability/analysis/../data/raw_data/p1902plwm5c_1772139713639.csv
NA,NA,NA,NA,NA,categorize-image,12,2.1.0,710691,p1902plwm5c,hard2,lemur,1072,b,stimuli/experiment1a/low_A_000.png,low,B,TRUE,/Users/martincz/GitHub/COGS119/group_wi26_nameability/analysis/../data/raw_data/p1902plwm5c_1772139713639.csv
NA,NA,NA,NA,NA,html-keyboard-response,13,2.1.0,711194,p1902plwm5c,hard2,lemur,null,null,"<div style=""font-size:60px;"">+</div>",NA,NA,NA,/Users/martincz/GitHub/COGS119/group_wi26_nameability/analysis/../data/raw_data/p1902plwm5c_1772139713639.csv
NA,NA,NA,NA,NA,html-keyboard-response,14,2.1.0,711697,p1902plwm5c,hard2,lemur,null,null,"<div style=""font-size:60px;"">+</div>",NA,NA,NA,/Users/martincz/GitHub/COGS119/group_wi26_nameability/analysis/../data/raw_data/p1902plwm5c_1772139713639.csv
NA,NA,NA,NA,NA,categorize-image,15,2.1.0,715362,p1902plwm5c,hard2,lemur,1661,b,stimuli/experiment1a/low_B_110.png,low,A,FALSE,/Users/martincz/GitHub/COGS119/group_wi26_nameability/analysis/../data/raw_data/p1902plwm5c_1772139713639.csv
NA,NA,NA,NA,NA,html-keyboard-response,16,2.1.0,715865,p1902plwm5c,hard2,lemur,null,null,"<div style=""font-size:60px;"">+</div>",NA,NA,NA,/Users/martincz/GitHub/COGS119/group_wi26_nameability/analysis/../data/raw_data/p1902plwm5c_1772139713639.csv
NA,NA,NA,NA,NA,categorize-image,17,2.1.0,718821,p1902plwm5c,hard2,lemur,954,a,stimuli/experiment1a/low_B_110.png,low,A,TRUE,/Users/martincz/GitHub/COGS119/group_wi26_nameability/analysis/../data/raw_data/p1902plwm5c_1772139713639.csv
NA,NA,NA,NA,NA,html-keyboard-response,18,2.1.0,719324,p1902plwm5c,hard2,lemur,null,null,"<div style=""font-size:60px;"">+</div>",NA,NA,NA,/Users/martincz/GitHub/COGS119/group_wi26_nameability/analysis/../data/raw_data/p1902plwm5c_1772139713639.csv
NA,NA,NA,NA,NA,html-keyboard-response,19,2.1.0,719826,p1902plwm5c,hard2,lemur,null,null,"<div style=""font-size:60px;"">+</div>",NA,NA,NA,/Users/martincz/GitHub/COGS119/group_wi26_nameability/analysis/../data/raw_data/p1902plwm5c_1772139713639.csv
NA,NA,NA,NA,NA,categorize-image,20,2.1.0,722910,p1902plwm5c,hard2,lemur,1080,a,stimuli/experiment1a/low_A_010.png,low,B,FALSE,/Users/martincz/GitHub/COGS119/group_wi26_nameability/analysis/../data/raw_data/p1902plwm5c_1772139713639.csv
NA,NA,NA,NA,NA,html-keyboard-response,21,2.1.0,723414,p1902plwm5c,hard2,lemur,null,null,"<div style=""font-size:60px;"">+</div>",NA,NA,NA,/Users/martincz/GitHub/COGS119/group_wi26_nameability/analysis/../data/raw_data/p1902plwm5c_1772139713639.csv
NA,NA,NA,NA,NA,categorize-image,22,2.1.0,726102,p1902plwm5c,hard2,lemur,685,b,stimuli/experiment1a/low_A_010.png,low,B,TRUE,/Users/martincz/GitHub/COGS119/group_wi26_nameability/analysis/../data/raw_data/p1902plwm5c_1772139713639.csv
NA,NA,NA,NA,NA,html-keyboard-response,23,2.1.0,726605,p1902plwm5c,hard2,lemur,null,null,"<div style=""font-size:60px;"">+</div>",NA,NA,NA,/Users/martincz/GitHub/COGS119/group_wi26_nameability/analysis/../data/raw_data/p1902plwm5c_1772139713639.csv
NA,NA,NA,NA,NA,html-keyboard-response,24,2.1.0,727106,p1902plwm5c,hard2,lemur,null,null,"<div style=""font-size:60px;"">+</div>",NA,NA,NA,/Users/martincz/GitHub/COGS119/group_wi26_nameability/analysis/../data/raw_data/p1902plwm5c_1772139713639.csv
NA,NA,NA,NA,NA,categorize-image,25,2.1.0,730703,p1902plwm5c,hard2,lemur,1594,a,stimuli/experiment1a/low_B_111.png,low,A,TRUE,/Users/martincz/GitHub/COGS119/group_wi26_nameability/analysis/../data/raw_data/p1902plwm5c_1772139713639.csv
NA,NA,NA,NA,NA,html-keyboard-response,26,2.1.0,731206,p1902plwm5c,hard2,lemur,null,null,"<div style=""font-size:60px;"">+</div>",NA,NA,NA,/Users/martincz/GitHub/COGS119/group_wi26_nameability/analysis/../data/raw_data/p1902plwm5c_1772139713639.csv
NA,NA,NA,NA,NA,html-keyboard-response,27,2.1.0,731708,p1902plwm5c,hard2,lemur,null,null,"<div style=""font-size:60px;"">+</div>",NA,NA,NA,/Users/martincz/GitHub/COGS119/group_wi26_nameability/analysis/../data/raw_data/p1902plwm5c_1772139713639.csv
NA,NA,NA,NA,NA,categorize-image,28,2.1.0,734572,p1902plwm5c,hard2,lemur,860,b,stimuli/experiment1a/low_A_001.png,low,B,TRUE,/Users/martincz/GitHub/COGS119/group_wi26_nameability/analysis/../data/raw_data/p1902plwm5c_1772139713639.csv
NA,NA,NA,NA,NA,html-keyboard-response,29,2.1.0,735075,p1902plwm5c,hard2,lemur,null,null,"<div style=""font-size:60px;"">+</div>",NA,NA,NA,/Users/martincz/GitHub/COGS119/group_wi26_nameability/analysis/../data/raw_data/p1902plwm5c_1772139713639.csv
NA,NA,NA,NA,NA,html-keyboard-response,30,2.1.0,735577,p1902plwm5c,hard2,lemur,null,null,"<div style=""font-size:60px;"">+</div>",NA,NA,NA,/Users/martincz/GitHub/COGS119/group_wi26_nameability/analysis/../data/raw_data/p1902plwm5c_1772139713639.csv
NA,NA,NA,NA,NA,categorize-image,31,2.1.0,738437,p1902plwm5c,hard2,lemur,855,b,stimuli/experiment1a/low_A_000.png,low,B,TRUE,/Users/martincz/GitHub/COGS119/group_wi26_nameability/analysis/../data/raw_data/p1902plwm5c_1772139713639.csv
NA,NA,NA,NA,NA,image-keyboard-response,32,null,740759,p1902plwm5c,hard2,lemur,2315,q,stimuli/experiment_check.webp,NA,NA,NA,/Users/martincz/GitHub/COGS119/group_wi26_nameability/analysis/../data/raw_data/p1902plwm5c_1772139713639.csv
NA,NA,NA,NA,NA,html-keyboard-response,33,2.1.0,742762,p1902plwm5c,hard2,lemur,null,null,<p>Fluffy blesses you. Good job!</p><p>Press any key to continue.</p>,NA,NA,NA,/Users/martincz/GitHub/COGS119/group_wi26_nameability/analysis/../data/raw_data/p1902plwm5c_1772139713639.csv
NA,NA,NA,NA,NA,html-keyboard-response,34,2.1.0,743062,p1902plwm5c,hard2,lemur,299,b,<p><strong>TEST BLOCK 1 FINISHED</strong></p><p>Press any key to continue.</p>,NA,NA,NA,/Users/martincz/GitHub/COGS119/group_wi26_nameability/analysis/../data/raw_data/p1902plwm5c_1772139713639.csv
NA,NA,NA,NA,NA,html-keyboard-response,35,2.1.0,743563,p1902plwm5c,hard2,lemur,null,null,"<div style=""font-size:60px;"">+</div>",NA,NA,NA,/Users/martincz/GitHub/COGS119/group_wi26_nameability/analysis/../data/raw_data/p1902plwm5c_1772139713639.csv
NA,NA,NA,NA,NA,html-keyboard-response,36,2.1.0,744066,p1902plwm5c,hard2,lemur,null,null,"<div style=""font-size:60px;"">+</div>",NA,NA,NA,/Users/martincz/GitHub/COGS119/group_wi26_nameability/analysis/../data/raw_data/p1902plwm5c_1772139713639.csv
NA,NA,NA,NA,NA,categorize-image,37,2.1.0,747304,p1902plwm5c,hard2,lemur,1235,a,stimuli/experiment1a/low_A_010.png,low,B,FALSE,/Users/martincz/GitHub/COGS119/group_wi26_nameability/analysis/../data/raw_data/p1902plwm5c_1772139713639.csv
NA,NA,NA,NA,NA,html-keyboard-response,38,2.1.0,747807,p1902plwm5c,hard2,lemur,null,null,"<div style=""font-size:60px;"">+</div>",NA,NA,NA,/Users/martincz/GitHub/COGS119/group_wi26_nameability/analysis/../data/raw_data/p1902plwm5c_1772139713639.csv
NA,NA,NA,NA,NA,categorize-image,39,2.1.0,750283,p1902plwm5c,hard2,lemur,472,b,stimuli/experiment1a/low_A_010.png,low,B,TRUE,/Users/martincz/GitHub/COGS119/group_wi26_nameability/analysis/../data/raw_data/p1902plwm5c_1772139713639.csv
NA,NA,NA,NA,NA,html-keyboard-response,40,2.1.0,750787,p1902plwm5c,hard2,lemur,null,null,"<div style=""font-size:60px;"">+</div>",NA,NA,NA,/Users/martincz/GitHub/COGS119/group_wi26_nameability/analysis/../data/raw_data/p1902plwm5c_1772139713639.csv
NA,NA,NA,NA,NA,html-keyboard-response,41,2.1.0,751288,p1902plwm5c,hard2,lemur,null,null,"<div style=""font-size:60px;"">+</div>",NA,NA,NA,/Users/martincz/GitHub/COGS119/group_wi26_nameability/analysis/../data/raw_data/p1902plwm5c_1772139713639.csv
NA,NA,NA,NA,NA,categorize-image,42,2.1.0,754129,p1902plwm5c,hard2,lemur,837,b,stimuli/experiment1a/low_A_000.png,low,B,TRUE,/Users/martincz/GitHub/COGS119/group_wi26_nameability/analysis/../data/raw_data/p1902plwm5c_1772139713639.csv
NA,NA,NA,NA,NA,html-keyboard-response,43,2.1.0,754632,p1902plwm5c,hard2,lemur,null,null,"<div style=""font-size:60px;"">+</div>",NA,NA,NA,/Users/martincz/GitHub/COGS119/group_wi26_nameability/analysis/../data/raw_data/p1902plwm5c_1772139713639.csv
NA,NA,NA,NA,NA,html-keyboard-response,44,2.1.0,755134,p1902plwm5c,hard2,lemur,null,null,"<div style=""font-size:60px;"">+</div>",NA,NA,NA,/Users/martincz/GitHub/COGS119/group_wi26_nameability/analysis/../data/raw_data/p1902plwm5c_1772139713639.csv
NA,NA,NA,NA,NA,categorize-image,45,2.1.0,758068,p1902plwm5c,hard2,lemur,931,a,stimuli/experiment1a/low_B_111.png,low,A,TRUE,/Users/martincz/GitHub/COGS119/group_wi26_nameability/analysis/../data/raw_data/p1902plwm5c_1772139713639.csv
NA,NA,NA,NA,NA,html-keyboard-response,46,2.1.0,758571,p1902plwm5c,hard2,lemur,null,null,"<div style=""font-size:60px;"">+</div>",NA,NA,NA,/Users/martincz/GitHub/COGS119/group_wi26_nameability/analysis/../data/raw_data/p1902plwm5c_1772139713639.csv
NA,NA,NA,NA,NA,html-keyboard-response,47,2.1.0,759073,p1902plwm5c,hard2,lemur,null,null,"<div style=""font-size:60px;"">+</div>",NA,NA,NA,/Users/martincz/GitHub/COGS119/group_wi26_nameability/analysis/../data/raw_data/p1902plwm5c_1772139713639.csv
NA,NA,NA,NA,NA,categorize-image,48,2.1.0,763196,p1902plwm5c,hard2,lemur,2120,b,stimuli/experiment1a/low_B_110.png,low,A,FALSE,/Users/martincz/GitHub/COGS119/group_wi26_nameability/analysis/../data/raw_data/p1902plwm5c_1772139713639.csv
NA,NA,NA,NA,NA,html-keyboard-response,49,2.1.0,763699,p1902plwm5c,hard2,lemur,null,null,"<div style=""font-size:60px;"">+</div>",NA,NA,NA,/Users/martincz/GitHub/COGS119/group_wi26_nameability/analysis/../data/raw_data/p1902plwm5c_1772139713639.csv
NA,NA,NA,NA,NA,categorize-image,50,2.1.0,766025,p1902plwm5c,hard2,lemur,322,a,stimuli/experiment1a/low_B_110.png,low,A,TRUE,/Users/martincz/GitHub/COGS119/group_wi26_nameability/analysis/../data/raw_data/p1902plwm5c_1772139713639.csv
NA,NA,NA,NA,NA,html-keyboard-response,51,2.1.0,766527,p1902plwm5c,hard2,lemur,null,null,"<div style=""font-size:60px;"">+</div>",NA,NA,NA,/Users/martincz/GitHub/COGS119/group_wi26_nameability/analysis/../data/raw_data/p1902plwm5c_1772139713639.csv
NA,NA,NA,NA,NA,html-keyboard-response,52,2.1.0,767030,p1902plwm5c,hard2,lemur,null,null,"<div style=""font-size:60px;"">+</div>",NA,NA,NA,/Users/martincz/GitHub/COGS119/group_wi26_nameability/analysis/../data/raw_data/p1902plwm5c_1772139713639.csv
NA,NA,NA,NA,NA,categorize-image,53,2.1.0,769795,p1902plwm5c,hard2,lemur,762,b,stimuli/experiment1a/low_A_000.png,low,B,TRUE,/Users/martincz/GitHub/COGS119/group_wi26_nameability/analysis/../data/raw_data/p1902plwm5c_1772139713639.csv
NA,NA,NA,NA,NA,html-keyboard-response,54,2.1.0,770298,p1902plwm5c,hard2,lemur,null,null,"<div style=""font-size:60px;"">+</div>",NA,NA,NA,/Users/martincz/GitHub/COGS119/group_wi26_nameability/analysis/../data/raw_data/p1902plwm5c_1772139713639.csv
NA,NA,NA,NA,NA,html-keyboard-response,55,2.1.0,770800,p1902plwm5c,hard2,lemur,null,null,"<div style=""font-size:60px;"">+</div>",NA,NA,NA,/Users/martincz/GitHub/COGS119/group_wi26_nameability/analysis/../data/raw_data/p1902plwm5c_1772139713639.csv
NA,NA,NA,NA,NA,categorize-image,56,2.1.0,773531,p1902plwm5c,hard2,lemur,728,a,stimuli/experiment1a/low_B_111.png,low,A,TRUE,/Users/martincz/GitHub/COGS119/group_wi26_nameability/analysis/../data/raw_data/p1902plwm5c_1772139713639.csv
NA,NA,NA,NA,NA,html-keyboard-response,57,2.1.0,774035,p1902plwm5c,hard2,lemur,null,null,"<div style=""font-size:60px;"">+</div>",NA,NA,NA,/Users/martincz/GitHub/COGS119/group_wi26_nameability/analysis/../data/raw_data/p1902plwm5c_1772139713639.csv
NA,NA,NA,NA,NA,html-keyboard-response,58,2.1.0,774536,p1902plwm5c,hard2,lemur,null,null,"<div style=""font-size:60px;"">+</div>",NA,NA,NA,/Users/martincz/GitHub/COGS119/group_wi26_nameability/analysis/../data/raw_data/p1902plwm5c_1772139713639.csv
NA,NA,NA,NA,NA,categorize-image,59,2.1.0,777139,p1902plwm5c,hard2,lemur,600,b,stimuli/experiment1a/low_A_001.png,low,B,TRUE,/Users/martincz/GitHub/COGS119/group_wi26_nameability/analysis/../data/raw_data/p1902plwm5c_1772139713639.csv
NA,NA,NA,NA,NA,html-keyboard-response,60,2.1.0,777641,p1902plwm5c,hard2,lemur,null,null,"<div style=""font-size:60px;"">+</div>",NA,NA,NA,/Users/martincz/GitHub/COGS119/group_wi26_nameability/analysis/../data/raw_data/p1902plwm5c_1772139713639.csv
NA,NA,NA,NA,NA,html-keyboard-response,61,2.1.0,778143,p1902plwm5c,hard2,lemur,null,null,"<div style=""font-size:60px;"">+</div>",NA,NA,NA,/Users/martincz/GitHub/COGS119/group_wi26_nameability/analysis/../data/raw_data/p1902plwm5c_1772139713639.csv
NA,NA,NA,NA,NA,categorize-image,62,2.1.0,782236,p1902plwm5c,hard2,lemur,2090,a,stimuli/experiment1a/low_B_101.png,low,A,TRUE,/Users/martincz/GitHub/COGS119/group_wi26_nameability/analysis/../data/raw_data/p1902plwm5c_1772139713639.csv
NA,NA,NA,NA,NA,image-keyboard-response,63,null,784454,p1902plwm5c,hard2,lemur,2216,q,stimuli/experiment_check.webp,NA,NA,NA,/Users/martincz/GitHub/COGS119/group_wi26_nameability/analysis/../data/raw_data/p1902plwm5c_1772139713639.csv
NA,NA,NA,NA,NA,html-keyboard-response,64,2.1.0,786457,p1902plwm5c,hard2,lemur,null,null,<p>Fluffy blesses you. Good job!</p><p>Press any key to continue.</p>,NA,NA,NA,/Users/martincz/GitHub/COGS119/group_wi26_nameability/analysis/../data/raw_data/p1902plwm5c_1772139713639.csv
NA,NA,NA,NA,NA,html-keyboard-response,65,2.1.0,789935,p1902plwm5c,hard2,lemur,3477,NA,<p><strong>TEST BLOCK 2 FINISHED</strong></p><p>Press any key to continue.</p>,NA,NA,NA,/Users/martincz/GitHub/COGS119/group_wi26_nameability/analysis/../data/raw_data/p1902plwm5c_1772139713639.csv
NA,NA,NA,NA,NA,html-keyboard-response,66,2.1.0,790437,p1902plwm5c,hard2,lemur,null,null,"<div style=""font-size:60px;"">+</div>",NA,NA,NA,/Users/martincz/GitHub/COGS119/group_wi26_nameability/analysis/../data/raw_data/p1902plwm5c_1772139713639.csv
NA,NA,NA,NA,NA,html-keyboard-response,67,2.1.0,790939,p1902plwm5c,hard2,lemur,null,null,"<div style=""font-size:60px;"">+</div>",NA,NA,NA,/Users/martincz/GitHub/COGS119/group_wi26_nameability/analysis/../data/raw_data/p1902plwm5c_1772139713639.csv
NA,NA,NA,NA,NA,categorize-image,68,2.1.0,795029,p1902plwm5c,hard2,lemur,2086,b,stimuli/experiment1a/low_A_000.png,low,B,TRUE,/Users/martincz/GitHub/COGS119/group_wi26_nameability/analysis/../data/raw_data/p1902plwm5c_1772139713639.csv
NA,NA,NA,NA,NA,html-keyboard-response,69,2.1.0,795532,p1902plwm5c,hard2,lemur,null,null,"<div style=""font-size:60px;"">+</div>",NA,NA,NA,/Users/martincz/GitHub/COGS119/group_wi26_nameability/analysis/../data/raw_data/p1902plwm5c_1772139713639.csv
NA,NA,NA,NA,NA,html-keyboard-response,70,2.1.0,796034,p1902plwm5c,hard2,lemur,null,null,"<div style=""font-size:60px;"">+</div>",NA,NA,NA,/Users/martincz/GitHub/COGS119/group_wi26_nameability/analysis/../data/raw_data/p1902plwm5c_1772139713639.csv
NA,NA,NA,NA,NA,categorize-image,71,2.1.0,798592,p1902plwm5c,hard2,lemur,553,a,stimuli/experiment1a/low_B_101.png,low,A,TRUE,/Users/martincz/GitHub/COGS119/group_wi26_nameability/analysis/../data/raw_data/p1902plwm5c_1772139713639.csv
NA,NA,NA,NA,NA,html-keyboard-response,72,2.1.0,799095,p1902plwm5c,hard2,lemur,null,null,"<div style=""font-size:60px;"">+</div>",NA,NA,NA,/Users/martincz/GitHub/COGS119/group_wi26_nameability/analysis/../data/raw_data/p1902plwm5c_1772139713639.csv
NA,NA,NA,NA,NA,html-keyboard-response,73,2.1.0,799596,p1902plwm5c,hard2,lemur,null,null,"<div style=""font-size:60px;"">+</div>",NA,NA,NA,/Users/martincz/GitHub/COGS119/group_wi26_nameability/analysis/../data/raw_data/p1902plwm5c_1772139713639.csv
NA,NA,NA,NA,NA,categorize-image,74,2.1.0,802366,p1902plwm5c,hard2,lemur,766,a,stimuli/experiment1a/low_B_111.png,low,A,TRUE,/Users/martincz/GitHub/COGS119/group_wi26_nameability/analysis/../data/raw_data/p1902plwm5c_1772139713639.csv
NA,NA,NA,NA,NA,html-keyboard-response,75,2.1.0,802869,p1902plwm5c,hard2,lemur,null,null,"<div style=""font-size:60px;"">+</div>",NA,NA,NA,/Users/martincz/GitHub/COGS119/group_wi26_nameability/analysis/../data/raw_data/p1902plwm5c_1772139713639.csv
NA,NA,NA,NA,NA,html-keyboard-response,76,2.1.0,803371,p1902plwm5c,hard2,lemur,null,null,"<div style=""font-size:60px;"">+</div>",NA,NA,NA,/Users/martincz/GitHub/COGS119/group_wi26_nameability/analysis/../data/raw_data/p1902plwm5c_1772139713639.csv
NA,NA,NA,NA,NA,categorize-image,77,2.1.0,806443,p1902plwm5c,hard2,lemur,1069,a,stimuli/experiment1a/low_B_110.png,low,A,TRUE,/Users/martincz/GitHub/COGS119/group_wi26_nameability/analysis/../data/raw_data/p1902plwm5c_1772139713639.csv
NA,NA,NA,NA,NA,html-keyboard-response,78,2.1.0,806946,p1902plwm5c,hard2,lemur,null,null,"<div style=""font-size:60px;"">+</div>",NA,NA,NA,/Users/martincz/GitHub/COGS119/group_wi26_nameability/analysis/../data/raw_data/p1902plwm5c_1772139713639.csv
NA,NA,NA,NA,NA,html-keyboard-response,79,2.1.0,807448,p1902plwm5c,hard2,lemur,null,null,"<div style=""font-size:60px;"">+</div>",NA,NA,NA,/Users/martincz/GitHub/COGS119/group_wi26_nameability/analysis/../data/raw_data/p1902plwm5c_1772139713639.csv
NA,NA,NA,NA,NA,categorize-image,80,2.1.0,810072,p1902plwm5c,hard2,lemur,620,b,stimuli/experiment1a/low_A_001.png,low,B,TRUE,/Users/martincz/GitHub/COGS119/group_wi26_nameability/analysis/../data/raw_data/p1902plwm5c_1772139713639.csv
NA,NA,NA,NA,NA,html-keyboard-response,81,2.1.0,810575,p1902plwm5c,hard2,lemur,null,null,"<div style=""font-size:60px;"">+</div>",NA,NA,NA,/Users/martincz/GitHub/COGS119/group_wi26_nameability/analysis/../data/raw_data/p1902plwm5c_1772139713639.csv
NA,NA,NA,NA,NA,html-keyboard-response,82,2.1.0,811077,p1902plwm5c,hard2,lemur,null,null,"<div style=""font-size:60px;"">+</div>",NA,NA,NA,/Users/martincz/GitHub/COGS119/group_wi26_nameability/analysis/../data/raw_data/p1902plwm5c_1772139713639.csv
NA,NA,NA,NA,NA,categorize-image,83,2.1.0,813633,p1902plwm5c,hard2,lemur,552,a,stimuli/experiment1a/low_B_111.png,low,A,TRUE,/Users/martincz/GitHub/COGS119/group_wi26_nameability/analysis/../data/raw_data/p1902plwm5c_1772139713639.csv
NA,NA,NA,NA,NA,html-keyboard-response,84,2.1.0,814135,p1902plwm5c,hard2,lemur,null,null,"<div style=""font-size:60px;"">+</div>",NA,NA,NA,/Users/martincz/GitHub/COGS119/group_wi26_nameability/analysis/../data/raw_data/p1902plwm5c_1772139713639.csv
NA,NA,NA,NA,NA,html-keyboard-response,85,2.1.0,814636,p1902plwm5c,hard2,lemur,null,null,"<div style=""font-size:60px;"">+</div>",NA,NA,NA,/Users/martincz/GitHub/COGS119/group_wi26_nameability/analysis/../data/raw_data/p1902plwm5c_1772139713639.csv
NA,NA,NA,NA,NA,categorize-image,86,2.1.0,817134,p1902plwm5c,hard2,lemur,495,a,stimuli/experiment1a/low_A_010.png,low,B,FALSE,/Users/martincz/GitHub/COGS119/group_wi26_nameability/analysis/../data/raw_data/p1902plwm5c_1772139713639.csv
NA,NA,NA,NA,NA,html-keyboard-response,87,2.1.0,817635,p1902plwm5c,hard2,lemur,null,null,"<div style=""font-size:60px;"">+</div>",NA,NA,NA,/Users/martincz/GitHub/COGS119/group_wi26_nameability/analysis/../data/raw_data/p1902plwm5c_1772139713639.csv
NA,NA,NA,NA,NA,categorize-image,88,2.1.0,819895,p1902plwm5c,hard2,lemur,258,b,stimuli/experiment1a/low_A_010.png,low,B,TRUE,/Users/martincz/GitHub/COGS119/group_wi26_nameability/analysis/../data/raw_data/p1902plwm5c_1772139713639.csv
NA,NA,NA,NA,NA,html-keyboard-response,89,2.1.0,820398,p1902plwm5c,hard2,lemur,null,null,"<div style=""font-size:60px;"">+</div>",NA,NA,NA,/Users/martincz/GitHub/COGS119/group_wi26_nameability/analysis/../data/raw_data/p1902plwm5c_1772139713639.csv
NA,NA,NA,NA,NA,html-keyboard-response,90,2.1.0,820900,p1902plwm5c,hard2,lemur,null,null,"<div style=""font-size:60px;"">+</div>",NA,NA,NA,/Users/martincz/GitHub/COGS119/group_wi26_nameability/analysis/../data/raw_data/p1902plwm5c_1772139713639.csv
NA,NA,NA,NA,NA,categorize-image,91,2.1.0,823524,p1902plwm5c,hard2,lemur,620,a,stimuli/experiment1a/low_A_000.png,low,B,FALSE,/Users/martincz/GitHub/COGS119/group_wi26_nameability/analysis/../data/raw_data/p1902plwm5c_1772139713639.csv
NA,NA,NA,NA,NA,html-keyboard-response,92,2.1.0,824027,p1902plwm5c,hard2,lemur,null,null,"<div style=""font-size:60px;"">+</div>",NA,NA,NA,/Users/martincz/GitHub/COGS119/group_wi26_nameability/analysis/../data/raw_data/p1902plwm5c_1772139713639.csv
NA,NA,NA,NA,NA,categorize-image,93,2.1.0,826285,p1902plwm5c,hard2,lemur,254,b,stimuli/experiment1a/low_A_000.png,low,B,TRUE,/Users/martincz/GitHub/COGS119/group_wi26_nameability/analysis/../data/raw_data/p1902plwm5c_1772139713639.csv
NA,NA,NA,NA,NA,image-keyboard-response,94,null,827288,p1902plwm5c,hard2,lemur,1000,q,stimuli/experiment_check.webp,NA,NA,NA,/Users/martincz/GitHub/COGS119/group_wi26_nameability/analysis/../data/raw_data/p1902plwm5c_1772139713639.csv
NA,NA,NA,NA,NA,html-keyboard-response,95,2.1.0,829125,p1902plwm5c,hard2,lemur,1837,a,<p>Fluffy blesses you. Good job!</p><p>Press any key to continue.</p>,NA,NA,NA,/Users/martincz/GitHub/COGS119/group_wi26_nameability/analysis/../data/raw_data/p1902plwm5c_1772139713639.csv
NA,NA,NA,NA,NA,html-keyboard-response,96,2.1.0,830022,p1902plwm5c,hard2,lemur,896,a,<p><strong>TEST BLOCK 3 FINISHED</strong></p><p>Press any key to continue.</p>,NA,NA,NA,/Users/martincz/GitHub/COGS119/group_wi26_nameability/analysis/../data/raw_data/p1902plwm5c_1772139713639.csv
NA,NA,NA,NA,NA,html-keyboard-response,97,2.1.0,830523,p1902plwm5c,hard2,lemur,null,null,"<div style=""font-size:60px;"">+</div>",NA,NA,NA,/Users/martincz/GitHub/COGS119/group_wi26_nameability/analysis/../data/raw_data/p1902plwm5c_1772139713639.csv
NA,NA,NA,NA,NA,html-keyboard-response,98,2.1.0,831026,p1902plwm5c,hard2,lemur,null,null,"<div style=""font-size:60px;"">+</div>",NA,NA,NA,/Users/martincz/GitHub/COGS119/group_wi26_nameability/analysis/../data/raw_data/p1902plwm5c_1772139713639.csv
NA,NA,NA,NA,NA,categorize-image,99,2.1.0,836488,p1902plwm5c,hard2,lemur,3458,a,stimuli/experiment1a/low_A_010.png,low,B,FALSE,/Users/martincz/GitHub/COGS119/group_wi26_nameability/analysis/../data/raw_data/p1902plwm5c_1772139713639.csv
NA,NA,NA,NA,NA,html-keyboard-response,100,2.1.0,836990,p1902plwm5c,hard2,lemur,null,null,"<div style=""font-size:60px;"">+</div>",NA,NA,NA,/Users/martincz/GitHub/COGS119/group_wi26_nameability/analysis/../data/raw_data/p1902plwm5c_1772139713639.csv
NA,NA,NA,NA,NA,categorize-image,101,2.1.0,839267,p1902plwm5c,hard2,lemur,273,b,stimuli/experiment1a/low_A_010.png,low,B,TRUE,/Users/martincz/GitHub/COGS119/group_wi26_nameability/analysis/../data/raw_data/p1902plwm5c_1772139713639.csv
NA,NA,NA,NA,NA,html-keyboard-response,102,2.1.0,839770,p1902plwm5c,hard2,lemur,null,null,"<div style=""font-size:60px;"">+</div>",NA,NA,NA,/Users/martincz/GitHub/COGS119/group_wi26_nameability/analysis/../data/raw_data/p1902plwm5c_1772139713639.csv
NA,NA,NA,NA,NA,html-keyboard-response,103,2.1.0,840272,p1902plwm5c,hard2,lemur,null,null,"<div style=""font-size:60px;"">+</div>",NA,NA,NA,/Users/martincz/GitHub/COGS119/group_wi26_nameability/analysis/../data/raw_data/p1902plwm5c_1772139713639.csv
NA,NA,NA,NA,NA,categorize-image,104,2.1.0,843311,p1902plwm5c,hard2,lemur,1035,b,stimuli/experiment1a/low_A_001.png,low,B,TRUE,/Users/martincz/GitHub/COGS119/group_wi26_nameability/analysis/../data/raw_data/p1902plwm5c_1772139713639.csv
NA,NA,NA,NA,NA,html-keyboard-response,105,2.1.0,843813,p1902plwm5c,hard2,lemur,null,null,"<div style=""font-size:60px;"">+</div>",NA,NA,NA,/Users/martincz/GitHub/COGS119/group_wi26_nameability/analysis/../data/raw_data/p1902plwm5c_1772139713639.csv
NA,NA,NA,NA,NA,html-keyboard-response,106,2.1.0,844315,p1902plwm5c,hard2,lemur,null,null,"<div style=""font-size:60px;"">+</div>",NA,NA,NA,/Users/martincz/GitHub/COGS119/group_wi26_nameability/analysis/../data/raw_data/p1902plwm5c_1772139713639.csv
NA,NA,NA,NA,NA,categorize-image,107,2.1.0,846861,p1902plwm5c,hard2,lemur,541,a,stimuli/experiment1a/low_B_101.png,low,A,TRUE,/Users/martincz/GitHub/COGS119/group_wi26_nameability/analysis/../data/raw_data/p1902plwm5c_1772139713639.csv
NA,NA,NA,NA,NA,html-keyboard-response,108,2.1.0,847363,p1902plwm5c,hard2,lemur,null,null,"<div style=""font-size:60px;"">+</div>",NA,NA,NA,/Users/martincz/GitHub/COGS119/group_wi26_nameability/analysis/../data/raw_data/p1902plwm5c_1772139713639.csv
NA,NA,NA,NA,NA,html-keyboard-response,109,2.1.0,847865,p1902plwm5c,hard2,lemur,null,null,"<div style=""font-size:60px;"">+</div>",NA,NA,NA,/Users/martincz/GitHub/COGS119/group_wi26_nameability/analysis/../data/raw_data/p1902plwm5c_1772139713639.csv
NA,NA,NA,NA,NA,categorize-image,110,2.1.0,850609,p1902plwm5c,hard2,lemur,741,b,stimuli/experiment1a/low_A_000.png,low,B,TRUE,/Users/martincz/GitHub/COGS119/group_wi26_nameability/analysis/../data/raw_data/p1902plwm5c_1772139713639.csv
NA,NA,NA,NA,NA,html-keyboard-response,111,2.1.0,851112,p1902plwm5c,hard2,lemur,null,null,"<div style=""font-size:60px;"">+</div>",NA,NA,NA,/Users/martincz/GitHub/COGS119/group_wi26_nameability/analysis/../data/raw_data/p1902plwm5c_1772139713639.csv
NA,NA,NA,NA,NA,html-keyboard-response,112,2.1.0,851615,p1902plwm5c,hard2,lemur,null,null,"<div style=""font-size:60px;"">+</div>",NA,NA,NA,/Users/martincz/GitHub/COGS119/group_wi26_nameability/analysis/../data/raw_data/p1902plwm5c_1772139713639.csv
NA,NA,NA,NA,NA,categorize-image,113,2.1.0,854329,p1902plwm5c,hard2,lemur,711,a,stimuli/experiment1a/low_B_110.png,low,A,TRUE,/Users/martincz/GitHub/COGS119/group_wi26_nameability/analysis/../data/raw_data/p1902plwm5c_1772139713639.csv
NA,NA,NA,NA,NA,html-keyboard-response,114,2.1.0,854832,p1902plwm5c,hard2,lemur,null,null,"<div style=""font-size:60px;"">+</div>",NA,NA,NA,/Users/martincz/GitHub/COGS119/group_wi26_nameability/analysis/../data/raw_data/p1902plwm5c_1772139713639.csv
NA,NA,NA,NA,NA,html-keyboard-response,115,2.1.0,855334,p1902plwm5c,hard2,lemur,null,null,"<div style=""font-size:60px;"">+</div>",NA,NA,NA,/Users/martincz/GitHub/COGS119/group_wi26_nameability/analysis/../data/raw_data/p1902plwm5c_1772139713639.csv
NA,NA,NA,NA,NA,categorize-image,116,2.1.0,857923,p1902plwm5c,hard2,lemur,585,a,stimuli/experiment1a/low_B_111.png,low,A,TRUE,/Users/martincz/GitHub/COGS119/group_wi26_nameability/analysis/../data/raw_data/p1902plwm5c_1772139713639.csv
NA,NA,NA,NA,NA,html-keyboard-response,117,2.1.0,858426,p1902plwm5c,hard2,lemur,null,null,"<div style=""font-size:60px;"">+</div>",NA,NA,NA,/Users/martincz/GitHub/COGS119/group_wi26_nameability/analysis/../data/raw_data/p1902plwm5c_1772139713639.csv
NA,NA,NA,NA,NA,html-keyboard-response,118,2.1.0,858927,p1902plwm5c,hard2,lemur,null,null,"<div style=""font-size:60px;"">+</div>",NA,NA,NA,/Users/martincz/GitHub/COGS119/group_wi26_nameability/analysis/../data/raw_data/p1902plwm5c_1772139713639.csv
NA,NA,NA,NA,NA,categorize-image,119,2.1.0,861529,p1902plwm5c,hard2,lemur,599,a,stimuli/experiment1a/low_B_111.png,low,A,TRUE,/Users/martincz/GitHub/COGS119/group_wi26_nameability/analysis/../data/raw_data/p1902plwm5c_1772139713639.csv
NA,NA,NA,NA,NA,html-keyboard-response,120,2.1.0,862032,p1902plwm5c,hard2,lemur,null,null,"<div style=""font-size:60px;"">+</div>",NA,NA,NA,/Users/martincz/GitHub/COGS119/group_wi26_nameability/analysis/../data/raw_data/p1902plwm5c_1772139713639.csv
NA,NA,NA,NA,NA,html-keyboard-response,121,2.1.0,862533,p1902plwm5c,hard2,lemur,null,null,"<div style=""font-size:60px;"">+</div>",NA,NA,NA,/Users/martincz/GitHub/COGS119/group_wi26_nameability/analysis/../data/raw_data/p1902plwm5c_1772139713639.csv
NA,NA,NA,NA,NA,categorize-image,122,2.1.0,865199,p1902plwm5c,hard2,lemur,662,b,stimuli/experiment1a/low_A_000.png,low,B,TRUE,/Users/martincz/GitHub/COGS119/group_wi26_nameability/analysis/../data/raw_data/p1902plwm5c_1772139713639.csv
NA,NA,NA,NA,NA,image-keyboard-response,123,null,866568,p1902plwm5c,hard2,lemur,1365,q,stimuli/experiment_check.webp,NA,NA,NA,/Users/martincz/GitHub/COGS119/group_wi26_nameability/analysis/../data/raw_data/p1902plwm5c_1772139713639.csv
NA,NA,NA,NA,NA,html-keyboard-response,124,2.1.0,867090,p1902plwm5c,hard2,lemur,521,a,<p>Fluffy blesses you. Good job!</p><p>Press any key to continue.</p>,NA,NA,NA,/Users/martincz/GitHub/COGS119/group_wi26_nameability/analysis/../data/raw_data/p1902plwm5c_1772139713639.csv
NA,NA,NA,NA,NA,html-keyboard-response,125,2.1.0,867478,p1902plwm5c,hard2,lemur,388,a,<p><strong>TEST BLOCK 4 FINISHED</strong></p><p>Press any key to continue.</p>,NA,NA,NA,/Users/martincz/GitHub/COGS119/group_wi26_nameability/analysis/../data/raw_data/p1902plwm5c_1772139713639.csv
NA,NA,NA,NA,NA,html-keyboard-response,126,2.1.0,867979,p1902plwm5c,hard2,lemur,null,null,"<div style=""font-size:60px;"">+</div>",NA,NA,NA,/Users/martincz/GitHub/COGS119/group_wi26_nameability/analysis/../data/raw_data/p1902plwm5c_1772139713639.csv
NA,NA,NA,NA,NA,html-keyboard-response,127,2.1.0,868482,p1902plwm5c,hard2,lemur,null,null,"<div style=""font-size:60px;"">+</div>",NA,NA,NA,/Users/martincz/GitHub/COGS119/group_wi26_nameability/analysis/../data/raw_data/p1902plwm5c_1772139713639.csv
NA,NA,NA,NA,NA,categorize-image,128,2.1.0,872260,p1902plwm5c,hard2,lemur,1774,a,stimuli/experiment1a/low_A_000.png,low,B,FALSE,/Users/martincz/GitHub/COGS119/group_wi26_nameability/analysis/../data/raw_data/p1902plwm5c_1772139713639.csv
NA,NA,NA,NA,NA,html-keyboard-response,129,2.1.0,872763,p1902plwm5c,hard2,lemur,null,null,"<div style=""font-size:60px;"">+</div>",NA,NA,NA,/Users/martincz/GitHub/COGS119/group_wi26_nameability/analysis/../data/raw_data/p1902plwm5c_1772139713639.csv
NA,NA,NA,NA,NA,categorize-image,130,2.1.0,875024,p1902plwm5c,hard2,lemur,257,b,stimuli/experiment1a/low_A_000.png,low,B,TRUE,/Users/martincz/GitHub/COGS119/group_wi26_nameability/analysis/../data/raw_data/p1902plwm5c_1772139713639.csv
NA,NA,NA,NA,NA,html-keyboard-response,131,2.1.0,875527,p1902plwm5c,hard2,lemur,null,null,"<div style=""font-size:60px;"">+</div>",NA,NA,NA,/Users/martincz/GitHub/COGS119/group_wi26_nameability/analysis/../data/raw_data/p1902plwm5c_1772139713639.csv
NA,NA,NA,NA,NA,html-keyboard-response,132,2.1.0,876029,p1902plwm5c,hard2,lemur,null,null,"<div style=""font-size:60px;"">+</div>",NA,NA,NA,/Users/martincz/GitHub/COGS119/group_wi26_nameability/analysis/../data/raw_data/p1902plwm5c_1772139713639.csv
NA,NA,NA,NA,NA,categorize-image,133,2.1.0,879016,p1902plwm5c,hard2,lemur,984,a,stimuli/experiment1a/low_A_010.png,low,B,FALSE,/Users/martincz/GitHub/COGS119/group_wi26_nameability/analysis/../data/raw_data/p1902plwm5c_1772139713639.csv
NA,NA,NA,NA,NA,html-keyboard-response,134,2.1.0,879519,p1902plwm5c,hard2,lemur,null,null,"<div style=""font-size:60px;"">+</div>",NA,NA,NA,/Users/martincz/GitHub/COGS119/group_wi26_nameability/analysis/../data/raw_data/p1902plwm5c_1772139713639.csv
NA,NA,NA,NA,NA,categorize-image,135,2.1.0,881811,p1902plwm5c,hard2,lemur,288,b,stimuli/experiment1a/low_A_010.png,low,B,TRUE,/Users/martincz/GitHub/COGS119/group_wi26_nameability/analysis/../data/raw_data/p1902plwm5c_1772139713639.csv
NA,NA,NA,NA,NA,html-keyboard-response,136,2.1.0,882314,p1902plwm5c,hard2,lemur,null,null,"<div style=""font-size:60px;"">+</div>",NA,NA,NA,/Users/martincz/GitHub/COGS119/group_wi26_nameability/analysis/../data/raw_data/p1902plwm5c_1772139713639.csv
NA,NA,NA,NA,NA,html-keyboard-response,137,2.1.0,882816,p1902plwm5c,hard2,lemur,null,null,"<div style=""font-size:60px;"">+</div>",NA,NA,NA,/Users/martincz/GitHub/COGS119/group_wi26_nameability/analysis/../data/raw_data/p1902plwm5c_1772139713639.csv
NA,NA,NA,NA,NA,categorize-image,138,2.1.0,885605,p1902plwm5c,hard2,lemur,785,a,stimuli/experiment1a/low_A_001.png,low,B,FALSE,/Users/martincz/GitHub/COGS119/group_wi26_nameability/analysis/../data/raw_data/p1902plwm5c_1772139713639.csv
NA,NA,NA,NA,NA,html-keyboard-response,139,2.1.0,886108,p1902plwm5c,hard2,lemur,null,null,"<div style=""font-size:60px;"">+</div>",NA,NA,NA,/Users/martincz/GitHub/COGS119/group_wi26_nameability/analysis/../data/raw_data/p1902plwm5c_1772139713639.csv
NA,NA,NA,NA,NA,categorize-image,140,2.1.0,888462,p1902plwm5c,hard2,lemur,351,b,stimuli/experiment1a/low_A_001.png,low,B,TRUE,/Users/martincz/GitHub/COGS119/group_wi26_nameability/analysis/../data/raw_data/p1902plwm5c_1772139713639.csv
NA,NA,NA,NA,NA,html-keyboard-response,141,2.1.0,888965,p1902plwm5c,hard2,lemur,null,null,"<div style=""font-size:60px;"">+</div>",NA,NA,NA,/Users/martincz/GitHub/COGS119/group_wi26_nameability/analysis/../data/raw_data/p1902plwm5c_1772139713639.csv
NA,NA,NA,NA,NA,html-keyboard-response,142,2.1.0,889468,p1902plwm5c,hard2,lemur,null,null,"<div style=""font-size:60px;"">+</div>",NA,NA,NA,/Users/martincz/GitHub/COGS119/group_wi26_nameability/analysis/../data/raw_data/p1902plwm5c_1772139713639.csv
NA,NA,NA,NA,NA,categorize-image,143,2.1.0,892051,p1902plwm5c,hard2,lemur,580,b,stimuli/experiment1a/low_A_000.png,low,B,TRUE,/Users/martincz/GitHub/COGS119/group_wi26_nameability/analysis/../data/raw_data/p1902plwm5c_1772139713639.csv
NA,NA,NA,NA,NA,html-keyboard-response,144,2.1.0,892554,p1902plwm5c,hard2,lemur,null,null,"<div style=""font-size:60px;"">+</div>",NA,NA,NA,/Users/martincz/GitHub/COGS119/group_wi26_nameability/analysis/../data/raw_data/p1902plwm5c_1772139713639.csv
NA,NA,NA,NA,NA,html-keyboard-response,145,2.1.0,893056,p1902plwm5c,hard2,lemur,null,null,"<div style=""font-size:60px;"">+</div>",NA,NA,NA,/Users/martincz/GitHub/COGS119/group_wi26_nameability/analysis/../data/raw_data/p1902plwm5c_1772139713639.csv
NA,NA,NA,NA,NA,categorize-image,146,2.1.0,895714,p1902plwm5c,hard2,lemur,654,a,stimuli/experiment1a/low_B_111.png,low,A,TRUE,/Users/martincz/GitHub/COGS119/group_wi26_nameability/analysis/../data/raw_data/p1902plwm5c_1772139713639.csv
NA,NA,NA,NA,NA,html-keyboard-response,147,2.1.0,896217,p1902plwm5c,hard2,lemur,null,null,"<div style=""font-size:60px;"">+</div>",NA,NA,NA,/Users/martincz/GitHub/COGS119/group_wi26_nameability/analysis/../data/raw_data/p1902plwm5c_1772139713639.csv
NA,NA,NA,NA,NA,html-keyboard-response,148,2.1.0,896719,p1902plwm5c,hard2,lemur,null,null,"<div style=""font-size:60px;"">+</div>",NA,NA,NA,/Users/martincz/GitHub/COGS119/group_wi26_nameability/analysis/../data/raw_data/p1902plwm5c_1772139713639.csv
NA,NA,NA,NA,NA,categorize-image,149,2.1.0,899883,p1902plwm5c,hard2,lemur,1161,a,stimuli/experiment1a/low_B_101.png,low,A,TRUE,/Users/martincz/GitHub/COGS119/group_wi26_nameability/analysis/../data/raw_data/p1902plwm5c_1772139713639.csv
NA,NA,NA,NA,NA,html-keyboard-response,150,2.1.0,900386,p1902plwm5c,hard2,lemur,null,null,"<div style=""font-size:60px;"">+</div>",NA,NA,NA,/Users/martincz/GitHub/COGS119/group_wi26_nameability/analysis/../data/raw_data/p1902plwm5c_1772139713639.csv
NA,NA,NA,NA,NA,html-keyboard-response,151,2.1.0,900888,p1902plwm5c,hard2,lemur,null,null,"<div style=""font-size:60px;"">+</div>",NA,NA,NA,/Users/martincz/GitHub/COGS119/group_wi26_nameability/analysis/../data/raw_data/p1902plwm5c_1772139713639.csv
NA,NA,NA,NA,NA,categorize-image,152,2.1.0,904202,p1902plwm5c,hard2,lemur,1309,a,stimuli/experiment1a/low_B_110.png,low,A,TRUE,/Users/martincz/GitHub/COGS119/group_wi26_nameability/analysis/../data/raw_data/p1902plwm5c_1772139713639.csv
NA,NA,NA,NA,NA,html-keyboard-response,153,2.1.0,904705,p1902plwm5c,hard2,lemur,null,null,"<div style=""font-size:60px;"">+</div>",NA,NA,NA,/Users/martincz/GitHub/COGS119/group_wi26_nameability/analysis/../data/raw_data/p1902plwm5c_1772139713639.csv
NA,NA,NA,NA,NA,html-keyboard-response,154,2.1.0,905207,p1902plwm5c,hard2,lemur,null,null,"<div style=""font-size:60px;"">+</div>",NA,NA,NA,/Users/martincz/GitHub/COGS119/group_wi26_nameability/analysis/../data/raw_data/p1902plwm5c_1772139713639.csv
NA,NA,NA,NA,NA,categorize-image,155,2.1.0,907799,p1902plwm5c,hard2,lemur,588,a,stimuli/experiment1a/low_B_111.png,low,A,TRUE,/Users/martincz/GitHub/COGS119/group_wi26_nameability/analysis/../data/raw_data/p1902plwm5c_1772139713639.csv
NA,NA,NA,NA,NA,image-keyboard-response,156,null,908455,p1902plwm5c,hard2,lemur,653,q,stimuli/experiment_check.webp,NA,NA,NA,/Users/martincz/GitHub/COGS119/group_wi26_nameability/analysis/../data/raw_data/p1902plwm5c_1772139713639.csv
NA,NA,NA,NA,NA,html-keyboard-response,157,2.1.0,909683,p1902plwm5c,hard2,lemur,1227,b,<p>Fluffy blesses you. Good job!</p><p>Press any key to continue.</p>,NA,NA,NA,/Users/martincz/GitHub/COGS119/group_wi26_nameability/analysis/../data/raw_data/p1902plwm5c_1772139713639.csv
NA,NA,NA,NA,NA,html-keyboard-response,158,2.1.0,909950,p1902plwm5c,hard2,lemur,267,b,<p><strong>TEST BLOCK 5 FINISHED</strong></p><p>Press any key to continue.</p>,NA,NA,NA,/Users/martincz/GitHub/COGS119/group_wi26_nameability/analysis/../data/raw_data/p1902plwm5c_1772139713639.csv
NA,NA,NA,NA,NA,html-keyboard-response,159,2.1.0,910452,p1902plwm5c,hard2,lemur,null,null,"<div style=""font-size:60px;"">+</div>",NA,NA,NA,/Users/martincz/GitHub/COGS119/group_wi26_nameability/analysis/../data/raw_data/p1902plwm5c_1772139713639.csv
NA,NA,NA,NA,NA,html-keyboard-response,160,2.1.0,910954,p1902plwm5c,hard2,lemur,null,null,"<div style=""font-size:60px;"">+</div>",NA,NA,NA,/Users/martincz/GitHub/COGS119/group_wi26_nameability/analysis/../data/raw_data/p1902plwm5c_1772139713639.csv
NA,NA,NA,NA,NA,categorize-image,161,2.1.0,914351,p1902plwm5c,hard2,lemur,1393,b,stimuli/experiment1a/low_A_010.png,low,B,TRUE,/Users/martincz/GitHub/COGS119/group_wi26_nameability/analysis/../data/raw_data/p1902plwm5c_1772139713639.csv
NA,NA,NA,NA,NA,html-keyboard-response,162,2.1.0,914855,p1902plwm5c,hard2,lemur,null,null,"<div style=""font-size:60px;"">+</div>",NA,NA,NA,/Users/martincz/GitHub/COGS119/group_wi26_nameability/analysis/../data/raw_data/p1902plwm5c_1772139713639.csv
NA,NA,NA,NA,NA,html-keyboard-response,163,2.1.0,915357,p1902plwm5c,hard2,lemur,null,null,"<div style=""font-size:60px;"">+</div>",NA,NA,NA,/Users/martincz/GitHub/COGS119/group_wi26_nameability/analysis/../data/raw_data/p1902plwm5c_1772139713639.csv
NA,NA,NA,NA,NA,categorize-image,164,2.1.0,917876,p1902plwm5c,hard2,lemur,516,a,stimuli/experiment1a/low_A_001.png,low,B,FALSE,/Users/martincz/GitHub/COGS119/group_wi26_nameability/analysis/../data/raw_data/p1902plwm5c_1772139713639.csv
NA,NA,NA,NA,NA,html-keyboard-response,165,2.1.0,918379,p1902plwm5c,hard2,lemur,null,null,"<div style=""font-size:60px;"">+</div>",NA,NA,NA,/Users/martincz/GitHub/COGS119/group_wi26_nameability/analysis/../data/raw_data/p1902plwm5c_1772139713639.csv
NA,NA,NA,NA,NA,categorize-image,166,2.1.0,920695,p1902plwm5c,hard2,lemur,313,b,stimuli/experiment1a/low_A_001.png,low,B,TRUE,/Users/martincz/GitHub/COGS119/group_wi26_nameability/analysis/../data/raw_data/p1902plwm5c_1772139713639.csv
NA,NA,NA,NA,NA,html-keyboard-response,167,2.1.0,921198,p1902plwm5c,hard2,lemur,null,null,"<div style=""font-size:60px;"">+</div>",NA,NA,NA,/Users/martincz/GitHub/COGS119/group_wi26_nameability/analysis/../data/raw_data/p1902plwm5c_1772139713639.csv
NA,NA,NA,NA,NA,html-keyboard-response,168,2.1.0,921701,p1902plwm5c,hard2,lemur,null,null,"<div style=""font-size:60px;"">+</div>",NA,NA,NA,/Users/martincz/GitHub/COGS119/group_wi26_nameability/analysis/../data/raw_data/p1902plwm5c_1772139713639.csv
NA,NA,NA,NA,NA,categorize-image,169,2.1.0,925393,p1902plwm5c,hard2,lemur,1688,a,stimuli/experiment1a/low_B_101.png,low,A,TRUE,/Users/martincz/GitHub/COGS119/group_wi26_nameability/analysis/../data/raw_data/p1902plwm5c_1772139713639.csv
NA,NA,NA,NA,NA,html-keyboard-response,170,2.1.0,925896,p1902plwm5c,hard2,lemur,null,null,"<div style=""font-size:60px;"">+</div>",NA,NA,NA,/Users/martincz/GitHub/COGS119/group_wi26_nameability/analysis/../data/raw_data/p1902plwm5c_1772139713639.csv
NA,NA,NA,NA,NA,html-keyboard-response,171,2.1.0,926398,p1902plwm5c,hard2,lemur,null,null,"<div style=""font-size:60px;"">+</div>",NA,NA,NA,/Users/martincz/GitHub/COGS119/group_wi26_nameability/analysis/../data/raw_data/p1902plwm5c_1772139713639.csv
NA,NA,NA,NA,NA,categorize-image,172,2.1.0,929909,p1902plwm5c,hard2,lemur,1506,b,stimuli/experiment1a/low_A_000.png,low,B,TRUE,/Users/martincz/GitHub/COGS119/group_wi26_nameability/analysis/../data/raw_data/p1902plwm5c_1772139713639.csv
NA,NA,NA,NA,NA,html-keyboard-response,173,2.1.0,930412,p1902plwm5c,hard2,lemur,null,null,"<div style=""font-size:60px;"">+</div>",NA,NA,NA,/Users/martincz/GitHub/COGS119/group_wi26_nameability/analysis/../data/raw_data/p1902plwm5c_1772139713639.csv
NA,NA,NA,NA,NA,html-keyboard-response,174,2.1.0,930914,p1902plwm5c,hard2,lemur,null,null,"<div style=""font-size:60px;"">+</div>",NA,NA,NA,/Users/martincz/GitHub/COGS119/group_wi26_nameability/analysis/../data/raw_data/p1902plwm5c_1772139713639.csv
NA,NA,NA,NA,NA,categorize-image,175,2.1.0,934060,p1902plwm5c,hard2,lemur,1142,a,stimuli/experiment1a/low_B_111.png,low,A,TRUE,/Users/martincz/GitHub/COGS119/group_wi26_nameability/analysis/../data/raw_data/p1902plwm5c_1772139713639.csv
NA,NA,NA,NA,NA,html-keyboard-response,176,2.1.0,934562,p1902plwm5c,hard2,lemur,null,null,"<div style=""font-size:60px;"">+</div>",NA,NA,NA,/Users/martincz/GitHub/COGS119/group_wi26_nameability/analysis/../data/raw_data/p1902plwm5c_1772139713639.csv
NA,NA,NA,NA,NA,html-keyboard-response,177,2.1.0,935064,p1902plwm5c,hard2,lemur,null,null,"<div style=""font-size:60px;"">+</div>",NA,NA,NA,/Users/martincz/GitHub/COGS119/group_wi26_nameability/analysis/../data/raw_data/p1902plwm5c_1772139713639.csv
NA,NA,NA,NA,NA,categorize-image,178,2.1.0,938199,p1902plwm5c,hard2,lemur,1132,b,stimuli/experiment1a/low_A_000.png,low,B,TRUE,/Users/martincz/GitHub/COGS119/group_wi26_nameability/analysis/../data/raw_data/p1902plwm5c_1772139713639.csv
NA,NA,NA,NA,NA,html-keyboard-response,179,2.1.0,938702,p1902plwm5c,hard2,lemur,null,null,"<div style=""font-size:60px;"">+</div>",NA,NA,NA,/Users/martincz/GitHub/COGS119/group_wi26_nameability/analysis/../data/raw_data/p1902plwm5c_1772139713639.csv
NA,NA,NA,NA,NA,html-keyboard-response,180,2.1.0,939204,p1902plwm5c,hard2,lemur,null,null,"<div style=""font-size:60px;"">+</div>",NA,NA,NA,/Users/martincz/GitHub/COGS119/group_wi26_nameability/analysis/../data/raw_data/p1902plwm5c_1772139713639.csv
NA,NA,NA,NA,NA,categorize-image,181,2.1.0,941932,p1902plwm5c,hard2,lemur,724,a,stimuli/experiment1a/low_B_110.png,low,A,TRUE,/Users/martincz/GitHub/COGS119/group_wi26_nameability/analysis/../data/raw_data/p1902plwm5c_1772139713639.csv
NA,NA,NA,NA,NA,html-keyboard-response,182,2.1.0,942435,p1902plwm5c,hard2,lemur,null,null,"<div style=""font-size:60px;"">+</div>",NA,NA,NA,/Users/martincz/GitHub/COGS119/group_wi26_nameability/analysis/../data/raw_data/p1902plwm5c_1772139713639.csv
NA,NA,NA,NA,NA,html-keyboard-response,183,2.1.0,942937,p1902plwm5c,hard2,lemur,null,null,"<div style=""font-size:60px;"">+</div>",NA,NA,NA,/Users/martincz/GitHub/COGS119/group_wi26_nameability/analysis/../data/raw_data/p1902plwm5c_1772139713639.csv
NA,NA,NA,NA,NA,categorize-image,184,2.1.0,945401,p1902plwm5c,hard2,lemur,461,a,stimuli/experiment1a/low_B_111.png,low,A,TRUE,/Users/martincz/GitHub/COGS119/group_wi26_nameability/analysis/../data/raw_data/p1902plwm5c_1772139713639.csv
NA,NA,NA,NA,NA,image-keyboard-response,185,null,946472,p1902plwm5c,hard2,lemur,1064,q,stimuli/experiment_check.webp,NA,NA,NA,/Users/martincz/GitHub/COGS119/group_wi26_nameability/analysis/../data/raw_data/p1902plwm5c_1772139713639.csv
NA,NA,NA,NA,NA,html-keyboard-response,186,2.1.0,947518,p1902plwm5c,hard2,lemur,1045,a,<p>Fluffy blesses you. Good job!</p><p>Press any key to continue.</p>,NA,NA,NA,/Users/martincz/GitHub/COGS119/group_wi26_nameability/analysis/../data/raw_data/p1902plwm5c_1772139713639.csv
NA,NA,NA,NA,NA,html-keyboard-response,187,2.1.0,947804,p1902plwm5c,hard2,lemur,285,a,<p><strong>TEST BLOCK 6 FINISHED</strong></p><p>Press any key to continue.</p>,NA,NA,NA,/Users/martincz/GitHub/COGS119/group_wi26_nameability/analysis/../data/raw_data/p1902plwm5c_1772139713639.csv
NA,NA,NA,NA,NA,survey-text,188,2.1.0,995955,p1902plwm5c,hard2,lemur,48129,"{""Language"":""yes"",""Art_background"":""no"",""Strategy"":""if it was orange, it was usually B. but if there was lilac, then it was always A. so if both orange and lilac came up, it was A. other colors were harder to understand.""}",NA,NA,NA,NA,/Users/martincz/GitHub/COGS119/group_wi26_nameability/analysis/../data/raw_data/p1902plwm5c_1772139713639.csv
NA,NA,NA,NA,NA,survey-text,189,2.1.0,1020308,p1902plwm5c,hard2,lemur,24353,"{""Issues"":""no"",""Why_experiment"":""I do not have any idea. maybe about chance? "",""Extra_info"":""maybe an explanation on what this experiment was about? \n""}",NA,NA,NA,NA,/Users/martincz/GitHub/COGS119/group_wi26_nameability/analysis/../data/raw_data/p1902plwm5c_1772139713639.csv
TRUE,FALSE,[],[],[],preload,0,2.1.0,321,p1nza6kw2n4,easy,wallaby,NA,NA,NA,NA,NA,NA,/Users/martincz/GitHub/COGS119/group_wi26_nameability/analysis/../data/raw_data/p1nza6kw2n4_1772163276041.csv
TRUE,NA,NA,NA,NA,fullscreen,1,2.1.0,3180,p1nza6kw2n4,easy,wallaby,1856,NA,NA,NA,NA,NA,/Users/martincz/GitHub/COGS119/group_wi26_nameability/analysis/../data/raw_data/p1nza6kw2n4_1772163276041.csv
NA,NA,NA,NA,NA,survey-text,2,2.1.0,6474,p1nza6kw2n4,easy,wallaby,3289,"{""participant_id"":""wallaby""}",NA,NA,NA,NA,/Users/martincz/GitHub/COGS119/group_wi26_nameability/analysis/../data/raw_data/p1nza6kw2n4_1772163276041.csv
NA,NA,NA,NA,NA,html-keyboard-response,3,2.1.0,33837,p1nza6kw2n4,easy,wallaby,27364,n,"
     <p> Welcome to the experiment! </p>

     <p> In this experiment, you will see a series of images. </p>
     <p> Your task is to categorize each image into one of two categories (A and B) as quickly and accurately as possible. </p>
     <p> You will receive feedback after each response. If you get the category wrong, you will be asked to choose the category again</p>
",NA,NA,NA,/Users/martincz/GitHub/COGS119/group_wi26_nameability/analysis/../data/raw_data/p1nza6kw2n4_1772163276041.csv
NA,NA,NA,NA,NA,html-keyboard-response,4,2.1.0,34339,p1nza6kw2n4,easy,wallaby,null,null,"<div style=""font-size:60px;"">+</div>",NA,NA,NA,/Users/martincz/GitHub/COGS119/group_wi26_nameability/analysis/../data/raw_data/p1nza6kw2n4_1772163276041.csv
NA,NA,NA,NA,NA,html-keyboard-response,5,2.1.0,34843,p1nza6kw2n4,easy,wallaby,null,null,"<div style=""font-size:60px;"">+</div>",NA,NA,NA,/Users/martincz/GitHub/COGS119/group_wi26_nameability/analysis/../data/raw_data/p1nza6kw2n4_1772163276041.csv
NA,NA,NA,NA,NA,categorize-image,6,2.1.0,41828,p1nza6kw2n4,easy,wallaby,4979,a,stimuli/experiment1a/high_A_000.png,high,A,TRUE,/Users/martincz/GitHub/COGS119/group_wi26_nameability/analysis/../data/raw_data/p1nza6kw2n4_1772163276041.csv
NA,NA,NA,NA,NA,html-keyboard-response,7,2.1.0,42332,p1nza6kw2n4,easy,wallaby,null,null,"<div style=""font-size:60px;"">+</div>",NA,NA,NA,/Users/martincz/GitHub/COGS119/group_wi26_nameability/analysis/../data/raw_data/p1nza6kw2n4_1772163276041.csv
NA,NA,NA,NA,NA,html-keyboard-response,8,2.1.0,42835,p1nza6kw2n4,easy,wallaby,null,null,"<div style=""font-size:60px;"">+</div>",NA,NA,NA,/Users/martincz/GitHub/COGS119/group_wi26_nameability/analysis/../data/raw_data/p1nza6kw2n4_1772163276041.csv
NA,NA,NA,NA,NA,categorize-image,9,2.1.0,55361,p1nza6kw2n4,easy,wallaby,10523,a,stimuli/experiment1a/high_B_111.png,high,B,FALSE,/Users/martincz/GitHub/COGS119/group_wi26_nameability/analysis/../data/raw_data/p1nza6kw2n4_1772163276041.csv
NA,NA,NA,NA,NA,html-keyboard-response,10,2.1.0,55864,p1nza6kw2n4,easy,wallaby,null,null,"<div style=""font-size:60px;"">+</div>",NA,NA,NA,/Users/martincz/GitHub/COGS119/group_wi26_nameability/analysis/../data/raw_data/p1nza6kw2n4_1772163276041.csv
NA,NA,NA,NA,NA,categorize-image,11,2.1.0,59082,p1nza6kw2n4,easy,wallaby,1213,b,stimuli/experiment1a/high_B_111.png,high,B,TRUE,/Users/martincz/GitHub/COGS119/group_wi26_nameability/analysis/../data/raw_data/p1nza6kw2n4_1772163276041.csv
NA,NA,NA,NA,NA,html-keyboard-response,12,2.1.0,59586,p1nza6kw2n4,easy,wallaby,null,null,"<div style=""font-size:60px;"">+</div>",NA,NA,NA,/Users/martincz/GitHub/COGS119/group_wi26_nameability/analysis/../data/raw_data/p1nza6kw2n4_1772163276041.csv
NA,NA,NA,NA,NA,html-keyboard-response,13,2.1.0,60088,p1nza6kw2n4,easy,wallaby,null,null,"<div style=""font-size:60px;"">+</div>",NA,NA,NA,/Users/martincz/GitHub/COGS119/group_wi26_nameability/analysis/../data/raw_data/p1nza6kw2n4_1772163276041.csv
NA,NA,NA,NA,NA,categorize-image,14,2.1.0,63095,p1nza6kw2n4,easy,wallaby,1005,a,stimuli/experiment1a/high_B_101.png,high,B,FALSE,/Users/martincz/GitHub/COGS119/group_wi26_nameability/analysis/../data/raw_data/p1nza6kw2n4_1772163276041.csv
NA,NA,NA,NA,NA,html-keyboard-response,15,2.1.0,63598,p1nza6kw2n4,easy,wallaby,null,null,"<div style=""font-size:60px;"">+</div>",NA,NA,NA,/Users/martincz/GitHub/COGS119/group_wi26_nameability/analysis/../data/raw_data/p1nza6kw2n4_1772163276041.csv
NA,NA,NA,NA,NA,categorize-image,16,2.1.0,66750,p1nza6kw2n4,easy,wallaby,1148,b,stimuli/experiment1a/high_B_101.png,high,B,TRUE,/Users/martincz/GitHub/COGS119/group_wi26_nameability/analysis/../data/raw_data/p1nza6kw2n4_1772163276041.csv
NA,NA,NA,NA,NA,html-keyboard-response,17,2.1.0,67253,p1nza6kw2n4,easy,wallaby,null,null,"<div style=""font-size:60px;"">+</div>",NA,NA,NA,/Users/martincz/GitHub/COGS119/group_wi26_nameability/analysis/../data/raw_data/p1nza6kw2n4_1772163276041.csv
NA,NA,NA,NA,NA,html-keyboard-response,18,2.1.0,67755,p1nza6kw2n4,easy,wallaby,null,null,"<div style=""font-size:60px;"">+</div>",NA,NA,NA,/Users/martincz/GitHub/COGS119/group_wi26_nameability/analysis/../data/raw_data/p1nza6kw2n4_1772163276041.csv
NA,NA,NA,NA,NA,categorize-image,19,2.1.0,70890,p1nza6kw2n4,easy,wallaby,1131,a,stimuli/experiment1a/high_A_001.png,high,A,TRUE,/Users/martincz/GitHub/COGS119/group_wi26_nameability/analysis/../data/raw_data/p1nza6kw2n4_1772163276041.csv
