"success","timeout","failed_images","failed_audio","failed_video","trial_type","trial_index","plugin_version","time_elapsed","random_id","condition","participant","rt","response","stimulus","nameability","correct_category","correct"
"true","false","[]","[]","[]","preload","0","2.1.0","31","pbchetoqo77","easy","duck","","","","","",""
"true","","","","","fullscreen","1","2.1.0","5083","pbchetoqo77","easy","duck","4049","","","","",""
"","","","","","survey-text","2","2.1.0","10471","pbchetoqo77","easy","duck","5369","{""participant_id"":""duck""}","","","",""
"","","","","","html-keyboard-response","3","2.1.0","32467","pbchetoqo77","easy","duck","21993"," ","
     <p> Welcome to the experiment! </p>

     <p> In this experiment, you will see a series of images. </p>
     <p> Your task is to categorize each image into one of two categories (A and B) as quickly and accurately as possible. </p>
     <p> You will receive feedback after each response. If you get the category wrong, you will be asked to choose the category again</p>
   ","","",""
"","","","","","html-keyboard-response","4","2.1.0","32970","pbchetoqo77","easy","duck","null","null","<div style=""font-size:60px;"">+</div>","","",""
"","","","","","html-keyboard-response","5","2.1.0","33472","pbchetoqo77","easy","duck","null","null","<div style=""font-size:60px;"">+</div>","","",""
"","","","","","categorize-image","6","2.1.0","44142","pbchetoqo77","easy","duck","8664","a","stimuli/experiment1a/high_A_000.png","high","A","true"
"","","","","","html-keyboard-response","7","2.1.0","44645","pbchetoqo77","easy","duck","null","null","<div style=""font-size:60px;"">+</div>","","",""
"","","","","","html-keyboard-response","8","2.1.0","45148","pbchetoqo77","easy","duck","null","null","<div style=""font-size:60px;"">+</div>","","",""
"","","","","","categorize-image","9","2.1.0","49454","pbchetoqo77","easy","duck","2302","a","stimuli/experiment1a/high_A_000.png","high","A","true"
"","","","","","html-keyboard-response","10","2.1.0","49957","pbchetoqo77","easy","duck","null","null","<div style=""font-size:60px;"">+</div>","","",""
"","","","","","html-keyboard-response","11","2.1.0","50459","pbchetoqo77","easy","duck","null","null","<div style=""font-size:60px;"">+</div>","","",""
"","","","","","categorize-image","12","2.1.0","53574","pbchetoqo77","easy","duck","1112","b","stimuli/experiment1a/high_B_110.png","high","B","true"
"","","","","","html-keyboard-response","13","2.1.0","54076","pbchetoqo77","easy","duck","null","null","<div style=""font-size:60px;"">+</div>","","",""
"","","","","","html-keyboard-response","14","2.1.0","54579","pbchetoqo77","easy","duck","null","null","<div style=""font-size:60px;"">+</div>","","",""
"","","","","","categorize-image","15","2.1.0","58918","pbchetoqo77","easy","duck","2336","a","stimuli/experiment1a/high_A_010.png","high","A","true"
"","","","","","html-keyboard-response","16","2.1.0","59421","pbchetoqo77","easy","duck","null","null","<div style=""font-size:60px;"">+</div>","","",""
"","","","","","html-keyboard-response","17","2.1.0","59923","pbchetoqo77","easy","duck","null","null","<div style=""font-size:60px;"">+</div>","","",""
"","","","","","categorize-image","18","2.1.0","62970","pbchetoqo77","easy","duck","1044","b","stimuli/experiment1a/high_B_111.png","high","B","true"
"","","","","","html-keyboard-response","19","2.1.0","63472","pbchetoqo77","easy","duck","null","null","<div style=""font-size:60px;"">+</div>","","",""
"","","","","","html-keyboard-response","20","2.1.0","63975","pbchetoqo77","easy","duck","null","null","<div style=""font-size:60px;"">+</div>","","",""
"","","","","","categorize-image","21","2.1.0","66715","pbchetoqo77","easy","duck","737","b","stimuli/experiment1a/high_B_111.png","high","B","true"
"","","","","","html-keyboard-response","22","2.1.0","67217","pbchetoqo77","easy","duck","null","null","<div style=""font-size:60px;"">+</div>","","",""
"","","","","","html-keyboard-response","23","2.1.0","67719","pbchetoqo77","easy","duck","null","null","<div style=""font-size:60px;"">+</div>","","",""
"","","","","","categorize-image","24","2.1.0","71112","pbchetoqo77","easy","duck","1390","b","stimuli/experiment1a/high_B_101.png","high","B","true"
"","","","","","html-keyboard-response","25","2.1.0","71615","pbchetoqo77","easy","duck","null","null","<div style=""font-size:60px;"">+</div>","","",""
"","","","","","html-keyboard-response","26","2.1.0","72117","pbchetoqo77","easy","duck","null","null","<div style=""font-size:60px;"">+</div>","","",""
"","","","","","categorize-image","27","2.1.0","74748","pbchetoqo77","easy","duck","628","a","stimuli/experiment1a/high_A_001.png","high","A","true"
"","","","","","image-keyboard-response","28","null","77648","pbchetoqo77","easy","duck","2889","q","stimuli/experiment_check.webp","","",""
"","","","","","html-keyboard-response","29","2.1.0","79650","pbchetoqo77","easy","duck","null","null","<p>Fluffy blesses you. Good job!</p><p>Press any key to continue.</p>","","",""
"","","","","","html-keyboard-response","30","2.1.0","81866","pbchetoqo77","easy","duck","2215"," ","<p><strong>TEST BLOCK 1 FINISHED</strong></p><p>Press any key to continue.</p>","","",""
"","","","","","html-keyboard-response","31","2.1.0","82369","pbchetoqo77","easy","duck","null","null","<div style=""font-size:60px;"">+</div>","","",""
"","","","","","html-keyboard-response","32","2.1.0","82872","pbchetoqo77","easy","duck","null","null","<div style=""font-size:60px;"">+</div>","","",""
"","","","","","categorize-image","33","2.1.0","85855","pbchetoqo77","easy","duck","980","b","stimuli/experiment1a/high_B_111.png","high","B","true"
"","","","","","html-keyboard-response","34","2.1.0","86358","pbchetoqo77","easy","duck","null","null","<div style=""font-size:60px;"">+</div>","","",""
"","","","","","html-keyboard-response","35","2.1.0","86861","pbchetoqo77","easy","duck","null","null","<div style=""font-size:60px;"">+</div>","","",""
"","","","","","categorize-image","36","2.1.0","89569","pbchetoqo77","easy","duck","705","a","stimuli/experiment1a/high_A_001.png","high","A","true"
"","","","","","html-keyboard-response","37","2.1.0","90072","pbchetoqo77","easy","duck","null","null","<div style=""font-size:60px;"">+</div>","","",""
"","","","","","html-keyboard-response","38","2.1.0","90574","pbchetoqo77","easy","duck","null","null","<div style=""font-size:60px;"">+</div>","","",""
"","","","","","categorize-image","39","2.1.0","93403","pbchetoqo77","easy","duck","826","a","stimuli/experiment1a/high_A_010.png","high","A","true"
"","","","","","html-keyboard-response","40","2.1.0","93905","pbchetoqo77","easy","duck","null","null","<div style=""font-size:60px;"">+</div>","","",""
"","","","","","html-keyboard-response","41","2.1.0","94407","pbchetoqo77","easy","duck","null","null","<div style=""font-size:60px;"">+</div>","","",""
"","","","","","categorize-image","42","2.1.0","97225","pbchetoqo77","easy","duck","815","a","stimuli/experiment1a/high_A_000.png","high","A","true"
"","","","","","html-keyboard-response","43","2.1.0","97727","pbchetoqo77","easy","duck","null","null","<div style=""font-size:60px;"">+</div>","","",""
"","","","","","html-keyboard-response","44","2.1.0","98230","pbchetoqo77","easy","duck","null","null","<div style=""font-size:60px;"">+</div>","","",""
"","","","","","categorize-image","45","2.1.0","100840","pbchetoqo77","easy","duck","608","b","stimuli/experiment1a/high_B_111.png","high","B","true"
"","","","","","html-keyboard-response","46","2.1.0","101342","pbchetoqo77","easy","duck","null","null","<div style=""font-size:60px;"">+</div>","","",""
"","","","","","html-keyboard-response","47","2.1.0","101845","pbchetoqo77","easy","duck","null","null","<div style=""font-size:60px;"">+</div>","","",""
"","","","","","categorize-image","48","2.1.0","104435","pbchetoqo77","easy","duck","588","a","stimuli/experiment1a/high_A_000.png","high","A","true"
"","","","","","html-keyboard-response","49","2.1.0","104938","pbchetoqo77","easy","duck","null","null","<div style=""font-size:60px;"">+</div>","","",""
"","","","","","html-keyboard-response","50","2.1.0","105439","pbchetoqo77","easy","duck","null","null","<div style=""font-size:60px;"">+</div>","","",""
"","","","","","categorize-image","51","2.1.0","108290","pbchetoqo77","easy","duck","847","b","stimuli/experiment1a/high_B_110.png","high","B","true"
"","","","","","html-keyboard-response","52","2.1.0","108792","pbchetoqo77","easy","duck","null","null","<div style=""font-size:60px;"">+</div>","","",""
"","","","","","html-keyboard-response","53","2.1.0","109294","pbchetoqo77","easy","duck","null","null","<div style=""font-size:60px;"">+</div>","","",""
"","","","","","categorize-image","54","2.1.0","112170","pbchetoqo77","easy","duck","873","b","stimuli/experiment1a/high_B_101.png","high","B","true"
"","","","","","image-keyboard-response","55","null","114328","pbchetoqo77","easy","duck","2156","q","stimuli/experiment_check.webp","","",""
"","","","","","html-keyboard-response","56","2.1.0","116330","pbchetoqo77","easy","duck","null","null","<p>Fluffy blesses you. Good job!</p><p>Press any key to continue.</p>","","",""
"","","","","","html-keyboard-response","57","2.1.0","119649","pbchetoqo77","easy","duck","3317","b","<p><strong>TEST BLOCK 2 FINISHED</strong></p><p>Press any key to continue.</p>","","",""
"","","","","","html-keyboard-response","58","2.1.0","120151","pbchetoqo77","easy","duck","null","null","<div style=""font-size:60px;"">+</div>","","",""
"","","","","","html-keyboard-response","59","2.1.0","120654","pbchetoqo77","easy","duck","null","null","<div style=""font-size:60px;"">+</div>","","",""
"","","","","","categorize-image","60","2.1.0","123441","pbchetoqo77","easy","duck","784","b","stimuli/experiment1a/high_B_101.png","high","B","true"
"","","","","","html-keyboard-response","61","2.1.0","123943","pbchetoqo77","easy","duck","null","null","<div style=""font-size:60px;"">+</div>","","",""
"","","","","","html-keyboard-response","62","2.1.0","124446","pbchetoqo77","easy","duck","null","null","<div style=""font-size:60px;"">+</div>","","",""
"","","","","","categorize-image","63","2.1.0","126999","pbchetoqo77","easy","duck","551","b","stimuli/experiment1a/high_B_110.png","high","B","true"
"","","","","","html-keyboard-response","64","2.1.0","127501","pbchetoqo77","easy","duck","null","null","<div style=""font-size:60px;"">+</div>","","",""
"","","","","","html-keyboard-response","65","2.1.0","128003","pbchetoqo77","easy","duck","null","null","<div style=""font-size:60px;"">+</div>","","",""
"","","","","","categorize-image","66","2.1.0","130517","pbchetoqo77","easy","duck","511","a","stimuli/experiment1a/high_A_010.png","high","A","true"
"","","","","","html-keyboard-response","67","2.1.0","131020","pbchetoqo77","easy","duck","null","null","<div style=""font-size:60px;"">+</div>","","",""
"","","","","","html-keyboard-response","68","2.1.0","131522","pbchetoqo77","easy","duck","null","null","<div style=""font-size:60px;"">+</div>","","",""
"","","","","","categorize-image","69","2.1.0","134168","pbchetoqo77","easy","duck","643","a","stimuli/experiment1a/high_A_000.png","high","A","true"
"","","","","","html-keyboard-response","70","2.1.0","134670","pbchetoqo77","easy","duck","null","null","<div style=""font-size:60px;"">+</div>","","",""
"","","","","","html-keyboard-response","71","2.1.0","135173","pbchetoqo77","easy","duck","null","null","<div style=""font-size:60px;"">+</div>","","",""
"","","","","","categorize-image","72","2.1.0","137792","pbchetoqo77","easy","duck","617","a","stimuli/experiment1a/high_A_001.png","high","A","true"
"","","","","","html-keyboard-response","73","2.1.0","138294","pbchetoqo77","easy","duck","null","null","<div style=""font-size:60px;"">+</div>","","",""
"","","","","","html-keyboard-response","74","2.1.0","138796","pbchetoqo77","easy","duck","null","null","<div style=""font-size:60px;"">+</div>","","",""
"","","","","","categorize-image","75","2.1.0","141479","pbchetoqo77","easy","duck","680","a","stimuli/experiment1a/high_A_000.png","high","A","true"
"","","","","","html-keyboard-response","76","2.1.0","141981","pbchetoqo77","easy","duck","null","null","<div style=""font-size:60px;"">+</div>","","",""
"","","","","","html-keyboard-response","77","2.1.0","142483","pbchetoqo77","easy","duck","null","null","<div style=""font-size:60px;"">+</div>","","",""
"","","","","","categorize-image","78","2.1.0","145140","pbchetoqo77","easy","duck","654","b","stimuli/experiment1a/high_B_111.png","high","B","true"
"","","","","","html-keyboard-response","79","2.1.0","145642","pbchetoqo77","easy","duck","null","null","<div style=""font-size:60px;"">+</div>","","",""
"","","","","","html-keyboard-response","80","2.1.0","146144","pbchetoqo77","easy","duck","null","null","<div style=""font-size:60px;"">+</div>","","",""
"","","","","","categorize-image","81","2.1.0","148711","pbchetoqo77","easy","duck","565","b","stimuli/experiment1a/high_B_111.png","high","B","true"
"","","","","","image-keyboard-response","82","null","149788","pbchetoqo77","easy","duck","1075","q","stimuli/experiment_check.webp","","",""
"","","","","","html-keyboard-response","83","2.1.0","151350","pbchetoqo77","easy","duck","1561","a","<p>Fluffy blesses you. Good job!</p><p>Press any key to continue.</p>","","",""
"","","","","","html-keyboard-response","84","2.1.0","152310","pbchetoqo77","easy","duck","960"," ","<p><strong>TEST BLOCK 3 FINISHED</strong></p><p>Press any key to continue.</p>","","",""
"","","","","","html-keyboard-response","85","2.1.0","152813","pbchetoqo77","easy","duck","null","null","<div style=""font-size:60px;"">+</div>","","",""
"","","","","","html-keyboard-response","86","2.1.0","153315","pbchetoqo77","easy","duck","null","null","<div style=""font-size:60px;"">+</div>","","",""
"","","","","","categorize-image","87","2.1.0","156522","pbchetoqo77","easy","duck","1203","a","stimuli/experiment1a/high_A_010.png","high","A","true"
"","","","","","html-keyboard-response","88","2.1.0","157024","pbchetoqo77","easy","duck","null","null","<div style=""font-size:60px;"">+</div>","","",""
"","","","","","html-keyboard-response","89","2.1.0","157526","pbchetoqo77","easy","duck","null","null","<div style=""font-size:60px;"">+</div>","","",""
"","","","","","categorize-image","90","2.1.0","160048","pbchetoqo77","easy","duck","519","b","stimuli/experiment1a/high_B_101.png","high","B","true"
"","","","","","html-keyboard-response","91","2.1.0","160551","pbchetoqo77","easy","duck","null","null","<div style=""font-size:60px;"">+</div>","","",""
"","","","","","html-keyboard-response","92","2.1.0","161053","pbchetoqo77","easy","duck","null","null","<div style=""font-size:60px;"">+</div>","","",""
"","","","","","categorize-image","93","2.1.0","164205","pbchetoqo77","easy","duck","1150","a","stimuli/experiment1a/high_A_001.png","high","A","true"
"","","","","","html-keyboard-response","94","2.1.0","164708","pbchetoqo77","easy","duck","null","null","<div style=""font-size:60px;"">+</div>","","",""
"","","","","","html-keyboard-response","95","2.1.0","165210","pbchetoqo77","easy","duck","null","null","<div style=""font-size:60px;"">+</div>","","",""
"","","","","","categorize-image","96","2.1.0","167887","pbchetoqo77","easy","duck","673","a","stimuli/experiment1a/high_A_000.png","high","A","true"
"","","","","","html-keyboard-response","97","2.1.0","168390","pbchetoqo77","easy","duck","null","null","<div style=""font-size:60px;"">+</div>","","",""
"","","","","","html-keyboard-response","98","2.1.0","168892","pbchetoqo77","easy","duck","null","null","<div style=""font-size:60px;"">+</div>","","",""
"","","","","","categorize-image","99","2.1.0","171575","pbchetoqo77","easy","duck","680","b","stimuli/experiment1a/high_B_111.png","high","B","true"
"","","","","","html-keyboard-response","100","2.1.0","172078","pbchetoqo77","easy","duck","null","null","<div style=""font-size:60px;"">+</div>","","",""
"","","","","","html-keyboard-response","101","2.1.0","172580","pbchetoqo77","easy","duck","null","null","<div style=""font-size:60px;"">+</div>","","",""
"","","","","","categorize-image","102","2.1.0","175623","pbchetoqo77","easy","duck","1039","b","stimuli/experiment1a/high_B_110.png","high","B","true"
"","","","","","html-keyboard-response","103","2.1.0","176125","pbchetoqo77","easy","duck","null","null","<div style=""font-size:60px;"">+</div>","","",""
"","","","","","html-keyboard-response","104","2.1.0","176626","pbchetoqo77","easy","duck","null","null","<div style=""font-size:60px;"">+</div>","","",""
"","","","","","categorize-image","105","2.1.0","179179","pbchetoqo77","easy","duck","550","b","stimuli/experiment1a/high_B_111.png","high","B","true"
"","","","","","html-keyboard-response","106","2.1.0","179681","pbchetoqo77","easy","duck","null","null","<div style=""font-size:60px;"">+</div>","","",""
"","","","","","html-keyboard-response","107","2.1.0","180184","pbchetoqo77","easy","duck","null","null","<div style=""font-size:60px;"">+</div>","","",""
"","","","","","categorize-image","108","2.1.0","182871","pbchetoqo77","easy","duck","685","a","stimuli/experiment1a/high_A_000.png","high","A","true"
"","","","","","image-keyboard-response","109","null","183738","pbchetoqo77","easy","duck","865","q","stimuli/experiment_check.webp","","",""
"","","","","","html-keyboard-response","110","2.1.0","184893","pbchetoqo77","easy","duck","1154","b","<p>Fluffy blesses you. Good job!</p><p>Press any key to continue.</p>","","",""
"","","","","","html-keyboard-response","111","2.1.0","185365","pbchetoqo77","easy","duck","471","b","<p><strong>TEST BLOCK 4 FINISHED</strong></p><p>Press any key to continue.</p>","","",""
"","","","","","html-keyboard-response","112","2.1.0","185867","pbchetoqo77","easy","duck","null","null","<div style=""font-size:60px;"">+</div>","","",""
"","","","","","html-keyboard-response","113","2.1.0","186369","pbchetoqo77","easy","duck","null","null","<div style=""font-size:60px;"">+</div>","","",""
"","","","","","categorize-image","114","2.1.0","189400","pbchetoqo77","easy","duck","1027","a","stimuli/experiment1a/high_A_001.png","high","A","true"
"","","","","","html-keyboard-response","115","2.1.0","189903","pbchetoqo77","easy","duck","null","null","<div style=""font-size:60px;"">+</div>","","",""
"","","","","","html-keyboard-response","116","2.1.0","190405","pbchetoqo77","easy","duck","null","null","<div style=""font-size:60px;"">+</div>","","",""
"","","","","","categorize-image","117","2.1.0","192967","pbchetoqo77","easy","duck","559","b","stimuli/experiment1a/high_B_101.png","high","B","true"
"","","","","","html-keyboard-response","118","2.1.0","193469","pbchetoqo77","easy","duck","null","null","<div style=""font-size:60px;"">+</div>","","",""
"","","","","","html-keyboard-response","119","2.1.0","193971","pbchetoqo77","easy","duck","null","null","<div style=""font-size:60px;"">+</div>","","",""
"","","","","","categorize-image","120","2.1.0","196567","pbchetoqo77","easy","duck","592","b","stimuli/experiment1a/high_B_110.png","high","B","true"
"","","","","","html-keyboard-response","121","2.1.0","197069","pbchetoqo77","easy","duck","null","null","<div style=""font-size:60px;"">+</div>","","",""
"","","","","","html-keyboard-response","122","2.1.0","197571","pbchetoqo77","easy","duck","null","null","<div style=""font-size:60px;"">+</div>","","",""
"","","","","","categorize-image","123","2.1.0","200145","pbchetoqo77","easy","duck","570","a","stimuli/experiment1a/high_A_000.png","high","A","true"
"","","","","","html-keyboard-response","124","2.1.0","200647","pbchetoqo77","easy","duck","null","null","<div style=""font-size:60px;"">+</div>","","",""
"","","","","","html-keyboard-response","125","2.1.0","201149","pbchetoqo77","easy","duck","null","null","<div style=""font-size:60px;"">+</div>","","",""
"","","","","","categorize-image","126","2.1.0","203876","pbchetoqo77","easy","duck","725","a","stimuli/experiment1a/high_A_010.png","high","A","true"
"","","","","","html-keyboard-response","127","2.1.0","204379","pbchetoqo77","easy","duck","null","null","<div style=""font-size:60px;"">+</div>","","",""
"","","","","","html-keyboard-response","128","2.1.0","204881","pbchetoqo77","easy","duck","null","null","<div style=""font-size:60px;"">+</div>","","",""
"","","","","","categorize-image","129","2.1.0","207598","pbchetoqo77","easy","duck","714","b","stimuli/experiment1a/high_B_111.png","high","B","true"
"","","","","","html-keyboard-response","130","2.1.0","208100","pbchetoqo77","easy","duck","null","null","<div style=""font-size:60px;"">+</div>","","",""
"","","","","","html-keyboard-response","131","2.1.0","208602","pbchetoqo77","easy","duck","null","null","<div style=""font-size:60px;"">+</div>","","",""
"","","","","","categorize-image","132","2.1.0","211485","pbchetoqo77","easy","duck","879","a","stimuli/experiment1a/high_A_000.png","high","A","true"
"","","","","","html-keyboard-response","133","2.1.0","211988","pbchetoqo77","easy","duck","null","null","<div style=""font-size:60px;"">+</div>","","",""
"","","","","","html-keyboard-response","134","2.1.0","212490","pbchetoqo77","easy","duck","null","null","<div style=""font-size:60px;"">+</div>","","",""
"","","","","","categorize-image","135","2.1.0","215147","pbchetoqo77","easy","duck","654","b","stimuli/experiment1a/high_B_111.png","high","B","true"
"","","","","","image-keyboard-response","136","null","216425","pbchetoqo77","easy","duck","1276","q","stimuli/experiment_check.webp","","",""
"","","","","","html-keyboard-response","137","2.1.0","218427","pbchetoqo77","easy","duck","null","null","<p>Fluffy blesses you. Good job!</p><p>Press any key to continue.</p>","","",""
"","","","","","html-keyboard-response","138","2.1.0","218742","pbchetoqo77","easy","duck","315","b","<p><strong>TEST BLOCK 5 FINISHED</strong></p><p>Press any key to continue.</p>","","",""
"","","","","","html-keyboard-response","139","2.1.0","219245","pbchetoqo77","easy","duck","null","null","<div style=""font-size:60px;"">+</div>","","",""
"","","","","","html-keyboard-response","140","2.1.0","219747","pbchetoqo77","easy","duck","null","null","<div style=""font-size:60px;"">+</div>","","",""
"","","","","","categorize-image","141","2.1.0","222391","pbchetoqo77","easy","duck","642","b","stimuli/experiment1a/high_B_101.png","high","B","true"
"","","","","","html-keyboard-response","142","2.1.0","222894","pbchetoqo77","easy","duck","null","null","<div style=""font-size:60px;"">+</div>","","",""
"","","","","","html-keyboard-response","143","2.1.0","223396","pbchetoqo77","easy","duck","null","null","<div style=""font-size:60px;"">+</div>","","",""
"","","","","","categorize-image","144","2.1.0","225790","pbchetoqo77","easy","duck","391","b","stimuli/experiment1a/high_B_111.png","high","B","true"
"","","","","","html-keyboard-response","145","2.1.0","226293","pbchetoqo77","easy","duck","null","null","<div style=""font-size:60px;"">+</div>","","",""
"","","","","","html-keyboard-response","146","2.1.0","226795","pbchetoqo77","easy","duck","null","null","<div style=""font-size:60px;"">+</div>","","",""
"","","","","","categorize-image","147","2.1.0","229479","pbchetoqo77","easy","duck","681","b","stimuli/experiment1a/high_B_110.png","high","B","true"
"","","","","","html-keyboard-response","148","2.1.0","229982","pbchetoqo77","easy","duck","null","null","<div style=""font-size:60px;"">+</div>","","",""
"","","","","","html-keyboard-response","149","2.1.0","230484","pbchetoqo77","easy","duck","null","null","<div style=""font-size:60px;"">+</div>","","",""
"","","","","","categorize-image","150","2.1.0","233039","pbchetoqo77","easy","duck","552","a","stimuli/experiment1a/high_A_001.png","high","A","true"
"","","","","","html-keyboard-response","151","2.1.0","233542","pbchetoqo77","easy","duck","null","null","<div style=""font-size:60px;"">+</div>","","",""
"","","","","","html-keyboard-response","152","2.1.0","234044","pbchetoqo77","easy","duck","null","null","<div style=""font-size:60px;"">+</div>","","",""
"","","","","","categorize-image","153","2.1.0","236538","pbchetoqo77","easy","duck","490","b","stimuli/experiment1a/high_B_111.png","high","B","true"
"","","","","","html-keyboard-response","154","2.1.0","237040","pbchetoqo77","easy","duck","null","null","<div style=""font-size:60px;"">+</div>","","",""
"","","","","","html-keyboard-response","155","2.1.0","237542","pbchetoqo77","easy","duck","null","null","<div style=""font-size:60px;"">+</div>","","",""
"","","","","","categorize-image","156","2.1.0","240061","pbchetoqo77","easy","duck","516","a","stimuli/experiment1a/high_A_000.png","high","A","true"
"","","","","","html-keyboard-response","157","2.1.0","240564","pbchetoqo77","easy","duck","null","null","<div style=""font-size:60px;"">+</div>","","",""
"","","","","","html-keyboard-response","158","2.1.0","241066","pbchetoqo77","easy","duck","null","null","<div style=""font-size:60px;"">+</div>","","",""
"","","","","","categorize-image","159","2.1.0","243612","pbchetoqo77","easy","duck","542","a","stimuli/experiment1a/high_A_010.png","high","A","true"
"","","","","","html-keyboard-response","160","2.1.0","244114","pbchetoqo77","easy","duck","null","null","<div style=""font-size:60px;"">+</div>","","",""
"","","","","","html-keyboard-response","161","2.1.0","244616","pbchetoqo77","easy","duck","null","null","<div style=""font-size:60px;"">+</div>","","",""
"","","","","","categorize-image","162","2.1.0","247130","pbchetoqo77","easy","duck","510","a","stimuli/experiment1a/high_A_000.png","high","A","true"
"","","","","","image-keyboard-response","163","null","248111","pbchetoqo77","easy","duck","980","Q","stimuli/experiment_check.webp","","",""
"","","","","","html-keyboard-response","164","2.1.0","250114","pbchetoqo77","easy","duck","null","null","<p>Fluffy is angered. Make sure to focus!</p><p>Press any key to continue.</p>","","",""
"","","","","","html-keyboard-response","165","2.1.0","254216","pbchetoqo77","easy","duck","4101","a","<p><strong>TEST BLOCK 6 FINISHED</strong></p><p>Press any key to continue.</p>","","",""
"","","","","","survey-text","166","2.1.0","282719","pbchetoqo77","easy","duck","28501","{""Language"":""no"",""Art_background"":""none"",""Strategy"":""if blue = A\nif orange = B""}","","","",""
"","","","","","survey-text","167","2.1.0","305152","pbchetoqo77","easy","duck","22432","{""Issues"":""no"",""Why_experiment"":""categorization of images"",""Extra_info"":""""}","","","",""
