"success","timeout","failed_images","failed_audio","failed_video","trial_type","trial_index","plugin_version","time_elapsed","random_id","condition","participant","rt","response","stimulus","nameability","correct_category","correct"
"true","false","[]","[]","[]","preload","0","2.1.0","89","pjvlzenl3v4","hard2","tiger","","","","","",""
"true","","","","","fullscreen","1","2.1.0","2878","pjvlzenl3v4","hard2","tiger","1783","","","","",""
"","","","","","survey-text","2","2.1.0","6260","pjvlzenl3v4","hard2","tiger","3378","{""participant_id"":""tiger""}","","","",""
"","","","","","html-keyboard-response","3","2.1.0","15926","pjvlzenl3v4","hard2","tiger","9664"," ","
     <p> Welcome to the experiment! </p>

     <p> In this experiment, you will see a series of images. </p>
     <p> Your task is to categorize each image into one of two categories (A and B) as quickly and accurately as possible. </p>
     <p> You will receive feedback after each response. If you get the category wrong, you will be asked to choose the category again</p>
   ","","",""
"","","","","","html-keyboard-response","4","2.1.0","16428","pjvlzenl3v4","hard2","tiger","null","null","<div style=""font-size:60px;"">+</div>","","",""
"","","","","","html-keyboard-response","5","2.1.0","16931","pjvlzenl3v4","hard2","tiger","null","null","<div style=""font-size:60px;"">+</div>","","",""
"","","","","","categorize-image","6","2.1.0","20473","pjvlzenl3v4","hard2","tiger","1539","a","stimuli/experiment1a/low_A_010.png","low","B","false"
"","","","","","html-keyboard-response","7","2.1.0","20976","pjvlzenl3v4","hard2","tiger","null","null","<div style=""font-size:60px;"">+</div>","","",""
"","","","","","categorize-image","8","2.1.0","23587","pjvlzenl3v4","hard2","tiger","608","b","stimuli/experiment1a/low_A_010.png","low","B","true"
"","","","","","html-keyboard-response","9","2.1.0","24090","pjvlzenl3v4","hard2","tiger","null","null","<div style=""font-size:60px;"">+</div>","","",""
"","","","","","html-keyboard-response","10","2.1.0","24593","pjvlzenl3v4","hard2","tiger","null","null","<div style=""font-size:60px;"">+</div>","","",""
"","","","","","categorize-image","11","2.1.0","27268","pjvlzenl3v4","hard2","tiger","672","a","stimuli/experiment1a/low_B_101.png","low","A","true"
"","","","","","html-keyboard-response","12","2.1.0","27771","pjvlzenl3v4","hard2","tiger","null","null","<div style=""font-size:60px;"">+</div>","","",""
"","","","","","html-keyboard-response","13","2.1.0","28273","pjvlzenl3v4","hard2","tiger","null","null","<div style=""font-size:60px;"">+</div>","","",""
"","","","","","categorize-image","14","2.1.0","31249","pjvlzenl3v4","hard2","tiger","975","a","stimuli/experiment1a/low_A_001.png","low","B","false"
"","","","","","html-keyboard-response","15","2.1.0","31751","pjvlzenl3v4","hard2","tiger","null","null","<div style=""font-size:60px;"">+</div>","","",""
"","","","","","categorize-image","16","2.1.0","34596","pjvlzenl3v4","hard2","tiger","842","b","stimuli/experiment1a/low_A_001.png","low","B","true"
"","","","","","html-keyboard-response","17","2.1.0","35099","pjvlzenl3v4","hard2","tiger","null","null","<div style=""font-size:60px;"">+</div>","","",""
"","","","","","html-keyboard-response","18","2.1.0","35600","pjvlzenl3v4","hard2","tiger","null","null","<div style=""font-size:60px;"">+</div>","","",""
"","","","","","categorize-image","19","2.1.0","38547","pjvlzenl3v4","hard2","tiger","943","a","stimuli/experiment1a/low_B_110.png","low","A","true"
"","","","","","html-keyboard-response","20","2.1.0","39048","pjvlzenl3v4","hard2","tiger","null","null","<div style=""font-size:60px;"">+</div>","","",""
"","","","","","html-keyboard-response","21","2.1.0","39550","pjvlzenl3v4","hard2","tiger","null","null","<div style=""font-size:60px;"">+</div>","","",""
"","","","","","categorize-image","22","2.1.0","42344","pjvlzenl3v4","hard2","tiger","791","b","stimuli/experiment1a/low_A_000.png","low","B","true"
"","","","","","html-keyboard-response","23","2.1.0","42846","pjvlzenl3v4","hard2","tiger","null","null","<div style=""font-size:60px;"">+</div>","","",""
"","","","","","html-keyboard-response","24","2.1.0","43348","pjvlzenl3v4","hard2","tiger","null","null","<div style=""font-size:60px;"">+</div>","","",""
"","","","","","categorize-image","25","2.1.0","45970","pjvlzenl3v4","hard2","tiger","621","b","stimuli/experiment1a/low_A_000.png","low","B","true"
"","","","","","html-keyboard-response","26","2.1.0","46473","pjvlzenl3v4","hard2","tiger","null","null","<div style=""font-size:60px;"">+</div>","","",""
"","","","","","html-keyboard-response","27","2.1.0","46974","pjvlzenl3v4","hard2","tiger","null","null","<div style=""font-size:60px;"">+</div>","","",""
"","","","","","categorize-image","28","2.1.0","49796","pjvlzenl3v4","hard2","tiger","819","a","stimuli/experiment1a/low_B_111.png","low","A","true"
"","","","","","html-keyboard-response","29","2.1.0","50297","pjvlzenl3v4","hard2","tiger","null","null","<div style=""font-size:60px;"">+</div>","","",""
"","","","","","html-keyboard-response","30","2.1.0","50798","pjvlzenl3v4","hard2","tiger","null","null","<div style=""font-size:60px;"">+</div>","","",""
"","","","","","categorize-image","31","2.1.0","53441","pjvlzenl3v4","hard2","tiger","640","a","stimuli/experiment1a/low_B_111.png","low","A","true"
"","","","","","image-keyboard-response","32","null","61074","pjvlzenl3v4","hard2","tiger","7623","q","stimuli/experiment_check.webp","","",""
"","","","","","html-keyboard-response","33","2.1.0","63077","pjvlzenl3v4","hard2","tiger","null","null","<p>Fluffy blesses you. Good job!</p><p>Press any key to continue.</p>","","",""
"","","","","","html-keyboard-response","34","2.1.0","63193","pjvlzenl3v4","hard2","tiger","116"," ","<p><strong>TEST BLOCK 1 FINISHED</strong></p><p>Press any key to continue.</p>","","",""
"","","","","","html-keyboard-response","35","2.1.0","63694","pjvlzenl3v4","hard2","tiger","null","null","<div style=""font-size:60px;"">+</div>","","",""
"","","","","","html-keyboard-response","36","2.1.0","64196","pjvlzenl3v4","hard2","tiger","null","null","<div style=""font-size:60px;"">+</div>","","",""
"","","","","","categorize-image","37","2.1.0","67741","pjvlzenl3v4","hard2","tiger","1542","b","stimuli/experiment1a/low_A_010.png","low","B","true"
"","","","","","html-keyboard-response","38","2.1.0","68244","pjvlzenl3v4","hard2","tiger","null","null","<div style=""font-size:60px;"">+</div>","","",""
"","","","","","html-keyboard-response","39","2.1.0","68746","pjvlzenl3v4","hard2","tiger","null","null","<div style=""font-size:60px;"">+</div>","","",""
"","","","","","categorize-image","40","2.1.0","71400","pjvlzenl3v4","hard2","tiger","651","b","stimuli/experiment1a/low_A_000.png","low","B","true"
"","","","","","html-keyboard-response","41","2.1.0","71902","pjvlzenl3v4","hard2","tiger","null","null","<div style=""font-size:60px;"">+</div>","","",""
"","","","","","html-keyboard-response","42","2.1.0","72403","pjvlzenl3v4","hard2","tiger","null","null","<div style=""font-size:60px;"">+</div>","","",""
"","","","","","categorize-image","43","2.1.0","75052","pjvlzenl3v4","hard2","tiger","647","a","stimuli/experiment1a/low_B_111.png","low","A","true"
"","","","","","html-keyboard-response","44","2.1.0","75555","pjvlzenl3v4","hard2","tiger","null","null","<div style=""font-size:60px;"">+</div>","","",""
"","","","","","html-keyboard-response","45","2.1.0","76056","pjvlzenl3v4","hard2","tiger","null","null","<div style=""font-size:60px;"">+</div>","","",""
"","","","","","categorize-image","46","2.1.0","78950","pjvlzenl3v4","hard2","tiger","891","a","stimuli/experiment1a/low_B_110.png","low","A","true"
"","","","","","html-keyboard-response","47","2.1.0","79453","pjvlzenl3v4","hard2","tiger","null","null","<div style=""font-size:60px;"">+</div>","","",""
"","","","","","html-keyboard-response","48","2.1.0","79955","pjvlzenl3v4","hard2","tiger","null","null","<div style=""font-size:60px;"">+</div>","","",""
"","","","","","categorize-image","49","2.1.0","82528","pjvlzenl3v4","hard2","tiger","570","b","stimuli/experiment1a/low_A_000.png","low","B","true"
"","","","","","html-keyboard-response","50","2.1.0","83031","pjvlzenl3v4","hard2","tiger","null","null","<div style=""font-size:60px;"">+</div>","","",""
"","","","","","html-keyboard-response","51","2.1.0","83532","pjvlzenl3v4","hard2","tiger","null","null","<div style=""font-size:60px;"">+</div>","","",""
"","","","","","categorize-image","52","2.1.0","86763","pjvlzenl3v4","hard2","tiger","1228","b","stimuli/experiment1a/low_A_001.png","low","B","true"
"","","","","","html-keyboard-response","53","2.1.0","87265","pjvlzenl3v4","hard2","tiger","null","null","<div style=""font-size:60px;"">+</div>","","",""
"","","","","","html-keyboard-response","54","2.1.0","87768","pjvlzenl3v4","hard2","tiger","null","null","<div style=""font-size:60px;"">+</div>","","",""
"","","","","","categorize-image","55","2.1.0","90934","pjvlzenl3v4","hard2","tiger","1163","a","stimuli/experiment1a/low_B_101.png","low","A","true"
"","","","","","html-keyboard-response","56","2.1.0","91436","pjvlzenl3v4","hard2","tiger","null","null","<div style=""font-size:60px;"">+</div>","","",""
"","","","","","html-keyboard-response","57","2.1.0","91937","pjvlzenl3v4","hard2","tiger","null","null","<div style=""font-size:60px;"">+</div>","","",""
"","","","","","categorize-image","58","2.1.0","94623","pjvlzenl3v4","hard2","tiger","684","a","stimuli/experiment1a/low_B_111.png","low","A","true"
"","","","","","image-keyboard-response","59","null","96349","pjvlzenl3v4","hard2","tiger","1724","q","stimuli/experiment_check.webp","","",""
"","","","","","html-keyboard-response","60","2.1.0","97370","pjvlzenl3v4","hard2","tiger","1021"," ","<p>Fluffy blesses you. Good job!</p><p>Press any key to continue.</p>","","",""
"","","","","","html-keyboard-response","61","2.1.0","99357","pjvlzenl3v4","hard2","tiger","1986"," ","<p><strong>TEST BLOCK 2 FINISHED</strong></p><p>Press any key to continue.</p>","","",""
"","","","","","html-keyboard-response","62","2.1.0","99858","pjvlzenl3v4","hard2","tiger","null","null","<div style=""font-size:60px;"">+</div>","","",""
"","","","","","html-keyboard-response","63","2.1.0","100359","pjvlzenl3v4","hard2","tiger","null","null","<div style=""font-size:60px;"">+</div>","","",""
"","","","","","categorize-image","64","2.1.0","103277","pjvlzenl3v4","hard2","tiger","916","b","stimuli/experiment1a/low_B_110.png","low","A","false"
"","","","","","html-keyboard-response","65","2.1.0","103779","pjvlzenl3v4","hard2","tiger","null","null","<div style=""font-size:60px;"">+</div>","","",""
"","","","","","categorize-image","66","2.1.0","106122","pjvlzenl3v4","hard2","tiger","341","a","stimuli/experiment1a/low_B_110.png","low","A","true"
"","","","","","html-keyboard-response","67","2.1.0","106625","pjvlzenl3v4","hard2","tiger","null","null","<div style=""font-size:60px;"">+</div>","","",""
"","","","","","html-keyboard-response","68","2.1.0","107126","pjvlzenl3v4","hard2","tiger","null","null","<div style=""font-size:60px;"">+</div>","","",""
"","","","","","categorize-image","69","2.1.0","109705","pjvlzenl3v4","hard2","tiger","576","b","stimuli/experiment1a/low_A_000.png","low","B","true"
"","","","","","html-keyboard-response","70","2.1.0","110208","pjvlzenl3v4","hard2","tiger","null","null","<div style=""font-size:60px;"">+</div>","","",""
"","","","","","html-keyboard-response","71","2.1.0","110709","pjvlzenl3v4","hard2","tiger","null","null","<div style=""font-size:60px;"">+</div>","","",""
"","","","","","categorize-image","72","2.1.0","113849","pjvlzenl3v4","hard2","tiger","1136","a","stimuli/experiment1a/low_B_111.png","low","A","true"
"","","","","","html-keyboard-response","73","2.1.0","114351","pjvlzenl3v4","hard2","tiger","null","null","<div style=""font-size:60px;"">+</div>","","",""
"","","","","","html-keyboard-response","74","2.1.0","114852","pjvlzenl3v4","hard2","tiger","null","null","<div style=""font-size:60px;"">+</div>","","",""
"","","","","","categorize-image","75","2.1.0","119457","pjvlzenl3v4","hard2","tiger","2602","b","stimuli/experiment1a/low_A_001.png","low","B","true"
"","","","","","html-keyboard-response","76","2.1.0","119959","pjvlzenl3v4","hard2","tiger","null","null","<div style=""font-size:60px;"">+</div>","","",""
"","","","","","html-keyboard-response","77","2.1.0","120461","pjvlzenl3v4","hard2","tiger","null","null","<div style=""font-size:60px;"">+</div>","","",""
"","","","","","categorize-image","78","2.1.0","123298","pjvlzenl3v4","hard2","tiger","834","a","stimuli/experiment1a/low_B_101.png","low","A","true"
"","","","","","html-keyboard-response","79","2.1.0","123800","pjvlzenl3v4","hard2","tiger","null","null","<div style=""font-size:60px;"">+</div>","","",""
"","","","","","html-keyboard-response","80","2.1.0","124301","pjvlzenl3v4","hard2","tiger","null","null","<div style=""font-size:60px;"">+</div>","","",""
"","","","","","categorize-image","81","2.1.0","126954","pjvlzenl3v4","hard2","tiger","649","b","stimuli/experiment1a/low_A_010.png","low","B","true"
"","","","","","html-keyboard-response","82","2.1.0","127456","pjvlzenl3v4","hard2","tiger","null","null","<div style=""font-size:60px;"">+</div>","","",""
"","","","","","html-keyboard-response","83","2.1.0","127958","pjvlzenl3v4","hard2","tiger","null","null","<div style=""font-size:60px;"">+</div>","","",""
"","","","","","categorize-image","84","2.1.0","130457","pjvlzenl3v4","hard2","tiger","497","b","stimuli/experiment1a/low_A_000.png","low","B","true"
"","","","","","html-keyboard-response","85","2.1.0","130960","pjvlzenl3v4","hard2","tiger","null","null","<div style=""font-size:60px;"">+</div>","","",""
"","","","","","html-keyboard-response","86","2.1.0","131462","pjvlzenl3v4","hard2","tiger","null","null","<div style=""font-size:60px;"">+</div>","","",""
"","","","","","categorize-image","87","2.1.0","134801","pjvlzenl3v4","hard2","tiger","1336","a","stimuli/experiment1a/low_B_111.png","low","A","true"
"","","","","","image-keyboard-response","88","null","136245","pjvlzenl3v4","hard2","tiger","1441","q","stimuli/experiment_check.webp","","",""
"","","","","","html-keyboard-response","89","2.1.0","137551","pjvlzenl3v4","hard2","tiger","1305"," ","<p>Fluffy blesses you. Good job!</p><p>Press any key to continue.</p>","","",""
"","","","","","html-keyboard-response","90","2.1.0","142189","pjvlzenl3v4","hard2","tiger","4637"," ","<p><strong>TEST BLOCK 3 FINISHED</strong></p><p>Press any key to continue.</p>","","",""
"","","","","","html-keyboard-response","91","2.1.0","142690","pjvlzenl3v4","hard2","tiger","null","null","<div style=""font-size:60px;"">+</div>","","",""
"","","","","","html-keyboard-response","92","2.1.0","143192","pjvlzenl3v4","hard2","tiger","null","null","<div style=""font-size:60px;"">+</div>","","",""
"","","","","","categorize-image","93","2.1.0","148076","pjvlzenl3v4","hard2","tiger","2882","a","stimuli/experiment1a/low_B_111.png","low","A","true"
"","","","","","html-keyboard-response","94","2.1.0","148578","pjvlzenl3v4","hard2","tiger","null","null","<div style=""font-size:60px;"">+</div>","","",""
"","","","","","html-keyboard-response","95","2.1.0","149079","pjvlzenl3v4","hard2","tiger","null","null","<div style=""font-size:60px;"">+</div>","","",""
"","","","","","categorize-image","96","2.1.0","152119","pjvlzenl3v4","hard2","tiger","1038","b","stimuli/experiment1a/low_B_101.png","low","A","false"
"","","","","","html-keyboard-response","97","2.1.0","152621","pjvlzenl3v4","hard2","tiger","null","null","<div style=""font-size:60px;"">+</div>","","",""
"","","","","","categorize-image","98","2.1.0","155325","pjvlzenl3v4","hard2","tiger","701","a","stimuli/experiment1a/low_B_101.png","low","A","true"
"","","","","","html-keyboard-response","99","2.1.0","155826","pjvlzenl3v4","hard2","tiger","null","null","<div style=""font-size:60px;"">+</div>","","",""
"","","","","","html-keyboard-response","100","2.1.0","156328","pjvlzenl3v4","hard2","tiger","null","null","<div style=""font-size:60px;"">+</div>","","",""
"","","","","","categorize-image","101","2.1.0","158863","pjvlzenl3v4","hard2","tiger","531","a","stimuli/experiment1a/low_B_111.png","low","A","true"
"","","","","","html-keyboard-response","102","2.1.0","159365","pjvlzenl3v4","hard2","tiger","null","null","<div style=""font-size:60px;"">+</div>","","",""
"","","","","","html-keyboard-response","103","2.1.0","159866","pjvlzenl3v4","hard2","tiger","null","null","<div style=""font-size:60px;"">+</div>","","",""
"","","","","","categorize-image","104","2.1.0","162922","pjvlzenl3v4","hard2","tiger","1053","b","stimuli/experiment1a/low_A_001.png","low","B","true"
"","","","","","html-keyboard-response","105","2.1.0","163425","pjvlzenl3v4","hard2","tiger","null","null","<div style=""font-size:60px;"">+</div>","","",""
"","","","","","html-keyboard-response","106","2.1.0","163926","pjvlzenl3v4","hard2","tiger","null","null","<div style=""font-size:60px;"">+</div>","","",""
"","","","","","categorize-image","107","2.1.0","166878","pjvlzenl3v4","hard2","tiger","950","b","stimuli/experiment1a/low_A_000.png","low","B","true"
"","","","","","html-keyboard-response","108","2.1.0","167381","pjvlzenl3v4","hard2","tiger","null","null","<div style=""font-size:60px;"">+</div>","","",""
"","","","","","html-keyboard-response","109","2.1.0","167882","pjvlzenl3v4","hard2","tiger","null","null","<div style=""font-size:60px;"">+</div>","","",""
"","","","","","categorize-image","110","2.1.0","170568","pjvlzenl3v4","hard2","tiger","684","b","stimuli/experiment1a/low_A_010.png","low","B","true"
"","","","","","html-keyboard-response","111","2.1.0","171071","pjvlzenl3v4","hard2","tiger","null","null","<div style=""font-size:60px;"">+</div>","","",""
"","","","","","html-keyboard-response","112","2.1.0","171572","pjvlzenl3v4","hard2","tiger","null","null","<div style=""font-size:60px;"">+</div>","","",""
"","","","","","categorize-image","113","2.1.0","174117","pjvlzenl3v4","hard2","tiger","542","b","stimuli/experiment1a/low_A_000.png","low","B","true"
"","","","","","html-keyboard-response","114","2.1.0","174618","pjvlzenl3v4","hard2","tiger","null","null","<div style=""font-size:60px;"">+</div>","","",""
"","","","","","html-keyboard-response","115","2.1.0","175119","pjvlzenl3v4","hard2","tiger","null","null","<div style=""font-size:60px;"">+</div>","","",""
"","","","","","categorize-image","116","2.1.0","178205","pjvlzenl3v4","hard2","tiger","1084","a","stimuli/experiment1a/low_B_110.png","low","A","true"
"","","","","","image-keyboard-response","117","null","179331","pjvlzenl3v4","hard2","tiger","1125","q","stimuli/experiment_check.webp","","",""
"","","","","","html-keyboard-response","118","2.1.0","180091","pjvlzenl3v4","hard2","tiger","760"," ","<p>Fluffy blesses you. Good job!</p><p>Press any key to continue.</p>","","",""
"","","","","","html-keyboard-response","119","2.1.0","182816","pjvlzenl3v4","hard2","tiger","2724"," ","<p><strong>TEST BLOCK 4 FINISHED</strong></p><p>Press any key to continue.</p>","","",""
"","","","","","html-keyboard-response","120","2.1.0","183317","pjvlzenl3v4","hard2","tiger","null","null","<div style=""font-size:60px;"">+</div>","","",""
"","","","","","html-keyboard-response","121","2.1.0","183819","pjvlzenl3v4","hard2","tiger","null","null","<div style=""font-size:60px;"">+</div>","","",""
"","","","","","categorize-image","122","2.1.0","186428","pjvlzenl3v4","hard2","tiger","607","b","stimuli/experiment1a/low_A_000.png","low","B","true"
"","","","","","html-keyboard-response","123","2.1.0","186930","pjvlzenl3v4","hard2","tiger","null","null","<div style=""font-size:60px;"">+</div>","","",""
"","","","","","html-keyboard-response","124","2.1.0","187432","pjvlzenl3v4","hard2","tiger","null","null","<div style=""font-size:60px;"">+</div>","","",""
"","","","","","categorize-image","125","2.1.0","189973","pjvlzenl3v4","hard2","tiger","539","b","stimuli/experiment1a/low_A_000.png","low","B","true"
"","","","","","html-keyboard-response","126","2.1.0","190474","pjvlzenl3v4","hard2","tiger","null","null","<div style=""font-size:60px;"">+</div>","","",""
"","","","","","html-keyboard-response","127","2.1.0","190976","pjvlzenl3v4","hard2","tiger","null","null","<div style=""font-size:60px;"">+</div>","","",""
"","","","","","categorize-image","128","2.1.0","193512","pjvlzenl3v4","hard2","tiger","533","a","stimuli/experiment1a/low_B_111.png","low","A","true"
"","","","","","html-keyboard-response","129","2.1.0","194014","pjvlzenl3v4","hard2","tiger","null","null","<div style=""font-size:60px;"">+</div>","","",""
"","","","","","html-keyboard-response","130","2.1.0","194515","pjvlzenl3v4","hard2","tiger","null","null","<div style=""font-size:60px;"">+</div>","","",""
"","","","","","categorize-image","131","2.1.0","197034","pjvlzenl3v4","hard2","tiger","517","b","stimuli/experiment1a/low_A_001.png","low","B","true"
"","","","","","html-keyboard-response","132","2.1.0","197537","pjvlzenl3v4","hard2","tiger","null","null","<div style=""font-size:60px;"">+</div>","","",""
"","","","","","html-keyboard-response","133","2.1.0","198039","pjvlzenl3v4","hard2","tiger","null","null","<div style=""font-size:60px;"">+</div>","","",""
"","","","","","categorize-image","134","2.1.0","200777","pjvlzenl3v4","hard2","tiger","736","a","stimuli/experiment1a/low_B_101.png","low","A","true"
"","","","","","html-keyboard-response","135","2.1.0","201279","pjvlzenl3v4","hard2","tiger","null","null","<div style=""font-size:60px;"">+</div>","","",""
"","","","","","html-keyboard-response","136","2.1.0","201781","pjvlzenl3v4","hard2","tiger","null","null","<div style=""font-size:60px;"">+</div>","","",""
"","","","","","categorize-image","137","2.1.0","204744","pjvlzenl3v4","hard2","tiger","961","b","stimuli/experiment1a/low_B_111.png","low","A","false"
"","","","","","html-keyboard-response","138","2.1.0","205245","pjvlzenl3v4","hard2","tiger","null","null","<div style=""font-size:60px;"">+</div>","","",""
"","","","","","categorize-image","139","2.1.0","207584","pjvlzenl3v4","hard2","tiger","338","a","stimuli/experiment1a/low_B_111.png","low","A","true"
"","","","","","html-keyboard-response","140","2.1.0","208085","pjvlzenl3v4","hard2","tiger","null","null","<div style=""font-size:60px;"">+</div>","","",""
"","","","","","html-keyboard-response","141","2.1.0","208588","pjvlzenl3v4","hard2","tiger","null","null","<div style=""font-size:60px;"">+</div>","","",""
"","","","","","categorize-image","142","2.1.0","211203","pjvlzenl3v4","hard2","tiger","614","b","stimuli/experiment1a/low_B_110.png","low","A","false"
"","","","","","html-keyboard-response","143","2.1.0","211705","pjvlzenl3v4","hard2","tiger","null","null","<div style=""font-size:60px;"">+</div>","","",""
"","","","","","categorize-image","144","2.1.0","213967","pjvlzenl3v4","hard2","tiger","260","a","stimuli/experiment1a/low_B_110.png","low","A","true"
"","","","","","html-keyboard-response","145","2.1.0","214470","pjvlzenl3v4","hard2","tiger","null","null","<div style=""font-size:60px;"">+</div>","","",""
"","","","","","html-keyboard-response","146","2.1.0","214971","pjvlzenl3v4","hard2","tiger","null","null","<div style=""font-size:60px;"">+</div>","","",""
"","","","","","categorize-image","147","2.1.0","217593","pjvlzenl3v4","hard2","tiger","621","b","stimuli/experiment1a/low_A_010.png","low","B","true"
"","","","","","image-keyboard-response","148","null","218589","pjvlzenl3v4","hard2","tiger","994","q","stimuli/experiment_check.webp","","",""
"","","","","","html-keyboard-response","149","2.1.0","219611","pjvlzenl3v4","hard2","tiger","1021"," ","<p>Fluffy blesses you. Good job!</p><p>Press any key to continue.</p>","","",""
"","","","","","html-keyboard-response","150","2.1.0","220318","pjvlzenl3v4","hard2","tiger","706"," ","<p><strong>TEST BLOCK 5 FINISHED</strong></p><p>Press any key to continue.</p>","","",""
"","","","","","html-keyboard-response","151","2.1.0","220819","pjvlzenl3v4","hard2","tiger","null","null","<div style=""font-size:60px;"">+</div>","","",""
"","","","","","html-keyboard-response","152","2.1.0","221321","pjvlzenl3v4","hard2","tiger","null","null","<div style=""font-size:60px;"">+</div>","","",""
"","","","","","categorize-image","153","2.1.0","223932","pjvlzenl3v4","hard2","tiger","609","b","stimuli/experiment1a/low_A_000.png","low","B","true"
"","","","","","html-keyboard-response","154","2.1.0","224434","pjvlzenl3v4","hard2","tiger","null","null","<div style=""font-size:60px;"">+</div>","","",""
"","","","","","html-keyboard-response","155","2.1.0","224936","pjvlzenl3v4","hard2","tiger","null","null","<div style=""font-size:60px;"">+</div>","","",""
"","","","","","categorize-image","156","2.1.0","227512","pjvlzenl3v4","hard2","tiger","571","b","stimuli/experiment1a/low_A_000.png","low","B","true"
"","","","","","html-keyboard-response","157","2.1.0","228014","pjvlzenl3v4","hard2","tiger","null","null","<div style=""font-size:60px;"">+</div>","","",""
"","","","","","html-keyboard-response","158","2.1.0","228515","pjvlzenl3v4","hard2","tiger","null","null","<div style=""font-size:60px;"">+</div>","","",""
"","","","","","categorize-image","159","2.1.0","231644","pjvlzenl3v4","hard2","tiger","1121","b","stimuli/experiment1a/low_A_001.png","low","B","true"
"","","","","","html-keyboard-response","160","2.1.0","232145","pjvlzenl3v4","hard2","tiger","null","null","<div style=""font-size:60px;"">+</div>","","",""
"","","","","","html-keyboard-response","161","2.1.0","232647","pjvlzenl3v4","hard2","tiger","null","null","<div style=""font-size:60px;"">+</div>","","",""
"","","","","","categorize-image","162","2.1.0","235487","pjvlzenl3v4","hard2","tiger","838","a","stimuli/experiment1a/low_B_111.png","low","A","true"
"","","","","","html-keyboard-response","163","2.1.0","235989","pjvlzenl3v4","hard2","tiger","null","null","<div style=""font-size:60px;"">+</div>","","",""
"","","","","","html-keyboard-response","164","2.1.0","236490","pjvlzenl3v4","hard2","tiger","null","null","<div style=""font-size:60px;"">+</div>","","",""
"","","","","","categorize-image","165","2.1.0","239000","pjvlzenl3v4","hard2","tiger","507","a","stimuli/experiment1a/low_B_111.png","low","A","true"
"","","","","","html-keyboard-response","166","2.1.0","239502","pjvlzenl3v4","hard2","tiger","null","null","<div style=""font-size:60px;"">+</div>","","",""
"","","","","","html-keyboard-response","167","2.1.0","240005","pjvlzenl3v4","hard2","tiger","null","null","<div style=""font-size:60px;"">+</div>","","",""
"","","","","","categorize-image","168","2.1.0","242751","pjvlzenl3v4","hard2","tiger","744","b","stimuli/experiment1a/low_B_110.png","low","A","false"
"","","","","","html-keyboard-response","169","2.1.0","243252","pjvlzenl3v4","hard2","tiger","null","null","<div style=""font-size:60px;"">+</div>","","",""
"","","","","","categorize-image","170","2.1.0","245416","pjvlzenl3v4","hard2","tiger","161","a","stimuli/experiment1a/low_B_110.png","low","A","true"
"","","","","","html-keyboard-response","171","2.1.0","245918","pjvlzenl3v4","hard2","tiger","null","null","<div style=""font-size:60px;"">+</div>","","",""
"","","","","","html-keyboard-response","172","2.1.0","246420","pjvlzenl3v4","hard2","tiger","null","null","<div style=""font-size:60px;"">+</div>","","",""
"","","","","","categorize-image","173","2.1.0","249327","pjvlzenl3v4","hard2","tiger","904","b","stimuli/experiment1a/low_B_101.png","low","A","false"
"","","","","","html-keyboard-response","174","2.1.0","249828","pjvlzenl3v4","hard2","tiger","null","null","<div style=""font-size:60px;"">+</div>","","",""
"","","","","","categorize-image","175","2.1.0","252249","pjvlzenl3v4","hard2","tiger","419","a","stimuli/experiment1a/low_B_101.png","low","A","true"
"","","","","","html-keyboard-response","176","2.1.0","252752","pjvlzenl3v4","hard2","tiger","null","null","<div style=""font-size:60px;"">+</div>","","",""
"","","","","","html-keyboard-response","177","2.1.0","253254","pjvlzenl3v4","hard2","tiger","null","null","<div style=""font-size:60px;"">+</div>","","",""
"","","","","","categorize-image","178","2.1.0","255841","pjvlzenl3v4","hard2","tiger","584","b","stimuli/experiment1a/low_A_010.png","low","B","true"
"","","","","","image-keyboard-response","179","null","257000","pjvlzenl3v4","hard2","tiger","1157","q","stimuli/experiment_check.webp","","",""
"","","","","","html-keyboard-response","180","2.1.0","259002","pjvlzenl3v4","hard2","tiger","null","null","<p>Fluffy blesses you. Good job!</p><p>Press any key to continue.</p>","","",""
"","","","","","html-keyboard-response","181","2.1.0","261338","pjvlzenl3v4","hard2","tiger","2336"," ","<p><strong>TEST BLOCK 6 FINISHED</strong></p><p>Press any key to continue.</p>","","",""
"","","","","","survey-text","182","2.1.0","320549","pjvlzenl3v4","hard2","tiger","59040","{""Language"":""yes"",""Art_background"":""painted a little as a child/teen"",""Strategy"":""looking at the color schemes, green green vs purple ""}","","","",""
"","","","","","survey-text","183","2.1.0","392767","pjvlzenl3v4","hard2","tiger","72212","{""Issues"":""no"",""Why_experiment"":""NA"",""Extra_info"":""tiger""}","","","",""
