"success","timeout","failed_images","failed_audio","failed_video","trial_type","trial_index","plugin_version","time_elapsed","random_id","condition","participant","rt","response","stimulus","nameability","correct_category","correct"
"true","false","[]","[]","[]","preload","0","2.1.0","478","pk9jezycqsj","hard","tortoise","","","","","",""
"true","","","","","fullscreen","1","2.1.0","873268","pk9jezycqsj","hard","tortoise","871775","","","","",""
"","","","","","survey-text","2","2.1.0","876118","pk9jezycqsj","hard","tortoise","2844","{""participant_id"":""tortoise""}","","","",""
"","","","","","html-keyboard-response","3","2.1.0","890458","pk9jezycqsj","hard","tortoise","14338"," ","
     <p> Welcome to the experiment! </p>

     <p> In this experiment, you will see a series of images. </p>
     <p> Your task is to categorize each image into one of two categories (A and B) as quickly and accurately as possible. </p>
     <p> You will receive feedback after each response. If you get the category wrong, you will be asked to choose the category again</p>
   ","","",""
"","","","","","html-keyboard-response","4","2.1.0","890962","pk9jezycqsj","hard","tortoise","null","null","<div style=""font-size:60px;"">+</div>","","",""
"","","","","","html-keyboard-response","5","2.1.0","891471","pk9jezycqsj","hard","tortoise","null","null","<div style=""font-size:60px;"">+</div>","","",""
"","","","","","categorize-image","6","2.1.0","896158","pk9jezycqsj","hard","tortoise","2680","a","stimuli/experiment1a/low_A_001.png","low","A","true"
"","","","","","html-keyboard-response","7","2.1.0","896670","pk9jezycqsj","hard","tortoise","null","null","<div style=""font-size:60px;"">+</div>","","",""
"","","","","","html-keyboard-response","8","2.1.0","897183","pk9jezycqsj","hard","tortoise","null","null","<div style=""font-size:60px;"">+</div>","","",""
"","","","","","categorize-image","9","2.1.0","901795","pk9jezycqsj","hard","tortoise","2601","a","stimuli/experiment1a/low_B_111.png","low","B","false"
"","","","","","html-keyboard-response","10","2.1.0","902306","pk9jezycqsj","hard","tortoise","null","null","<div style=""font-size:60px;"">+</div>","","",""
"","","","","","categorize-image","11","2.1.0","905418","pk9jezycqsj","hard","tortoise","1098","b","stimuli/experiment1a/low_B_111.png","low","B","true"
"","","","","","html-keyboard-response","12","2.1.0","905925","pk9jezycqsj","hard","tortoise","null","null","<div style=""font-size:60px;"">+</div>","","",""
"","","","","","html-keyboard-response","13","2.1.0","906434","pk9jezycqsj","hard","tortoise","null","null","<div style=""font-size:60px;"">+</div>","","",""
"","","","","","categorize-image","14","2.1.0","909656","pk9jezycqsj","hard","tortoise","1217","a","stimuli/experiment1a/low_A_000.png","low","A","true"
"","","","","","html-keyboard-response","15","2.1.0","910167","pk9jezycqsj","hard","tortoise","null","null","<div style=""font-size:60px;"">+</div>","","",""
"","","","","","html-keyboard-response","16","2.1.0","910676","pk9jezycqsj","hard","tortoise","null","null","<div style=""font-size:60px;"">+</div>","","",""
"","","","","","categorize-image","17","2.1.0","914181","pk9jezycqsj","hard","tortoise","1502","b","stimuli/experiment1a/low_B_110.png","low","B","true"
"","","","","","html-keyboard-response","18","2.1.0","914691","pk9jezycqsj","hard","tortoise","null","null","<div style=""font-size:60px;"">+</div>","","",""
"","","","","","html-keyboard-response","19","2.1.0","915201","pk9jezycqsj","hard","tortoise","null","null","<div style=""font-size:60px;"">+</div>","","",""
"","","","","","categorize-image","20","2.1.0","918344","pk9jezycqsj","hard","tortoise","1138","b","stimuli/experiment1a/low_B_111.png","low","B","true"
"","","","","","html-keyboard-response","21","2.1.0","918855","pk9jezycqsj","hard","tortoise","null","null","<div style=""font-size:60px;"">+</div>","","",""
"","","","","","html-keyboard-response","22","2.1.0","919368","pk9jezycqsj","hard","tortoise","null","null","<div style=""font-size:60px;"">+</div>","","",""
"","","","","","categorize-image","23","2.1.0","922262","pk9jezycqsj","hard","tortoise","883","a","stimuli/experiment1a/low_A_010.png","low","A","true"
"","","","","","html-keyboard-response","24","2.1.0","922775","pk9jezycqsj","hard","tortoise","null","null","<div style=""font-size:60px;"">+</div>","","",""
"","","","","","html-keyboard-response","25","2.1.0","923288","pk9jezycqsj","hard","tortoise","null","null","<div style=""font-size:60px;"">+</div>","","",""
"","","","","","categorize-image","26","2.1.0","926777","pk9jezycqsj","hard","tortoise","1477","b","stimuli/experiment1a/low_B_101.png","low","B","true"
"","","","","","html-keyboard-response","27","2.1.0","927290","pk9jezycqsj","hard","tortoise","null","null","<div style=""font-size:60px;"">+</div>","","",""
"","","","","","html-keyboard-response","28","2.1.0","927798","pk9jezycqsj","hard","tortoise","null","null","<div style=""font-size:60px;"">+</div>","","",""
"","","","","","categorize-image","29","2.1.0","931542","pk9jezycqsj","hard","tortoise","1741","a","stimuli/experiment1a/low_A_000.png","low","A","true"
"","","","","","image-keyboard-response","30","null","934535","pk9jezycqsj","hard","tortoise","2990","q","stimuli/experiment_check.webp","","",""
"","","","","","html-keyboard-response","31","2.1.0","936538","pk9jezycqsj","hard","tortoise","null","null","<p>Fluffy blesses you. Good job!</p><p>Press any key to continue.</p>","","",""
"","","","","","html-keyboard-response","32","2.1.0","937020","pk9jezycqsj","hard","tortoise","481","b","<p><strong>TEST BLOCK 1 FINISHED</strong></p><p>Press any key to continue.</p>","","",""
"","","","","","html-keyboard-response","33","2.1.0","937527","pk9jezycqsj","hard","tortoise","null","null","<div style=""font-size:60px;"">+</div>","","",""
"","","","","","html-keyboard-response","34","2.1.0","938039","pk9jezycqsj","hard","tortoise","null","null","<div style=""font-size:60px;"">+</div>","","",""
"","","","","","categorize-image","35","2.1.0","941456","pk9jezycqsj","hard","tortoise","1414","b","stimuli/experiment1a/low_B_111.png","low","B","true"
"","","","","","html-keyboard-response","36","2.1.0","941972","pk9jezycqsj","hard","tortoise","null","null","<div style=""font-size:60px;"">+</div>","","",""
"","","","","","html-keyboard-response","37","2.1.0","942481","pk9jezycqsj","hard","tortoise","null","null","<div style=""font-size:60px;"">+</div>","","",""
"","","","","","categorize-image","38","2.1.0","945883","pk9jezycqsj","hard","tortoise","1392","a","stimuli/experiment1a/low_A_010.png","low","A","true"
"","","","","","html-keyboard-response","39","2.1.0","946395","pk9jezycqsj","hard","tortoise","null","null","<div style=""font-size:60px;"">+</div>","","",""
"","","","","","html-keyboard-response","40","2.1.0","946908","pk9jezycqsj","hard","tortoise","null","null","<div style=""font-size:60px;"">+</div>","","",""
"","","","","","categorize-image","41","2.1.0","951847","pk9jezycqsj","hard","tortoise","2931","b","stimuli/experiment1a/low_A_001.png","low","A","false"
"","","","","","html-keyboard-response","42","2.1.0","952356","pk9jezycqsj","hard","tortoise","null","null","<div style=""font-size:60px;"">+</div>","","",""
"","","","","","categorize-image","43","2.1.0","955327","pk9jezycqsj","hard","tortoise","957","a","stimuli/experiment1a/low_A_001.png","low","A","true"
"","","","","","html-keyboard-response","44","2.1.0","955836","pk9jezycqsj","hard","tortoise","null","null","<div style=""font-size:60px;"">+</div>","","",""
"","","","","","html-keyboard-response","45","2.1.0","956347","pk9jezycqsj","hard","tortoise","null","null","<div style=""font-size:60px;"">+</div>","","",""
"","","","","","categorize-image","46","2.1.0","959501","pk9jezycqsj","hard","tortoise","1145","a","stimuli/experiment1a/low_A_000.png","low","A","true"
"","","","","","html-keyboard-response","47","2.1.0","960014","pk9jezycqsj","hard","tortoise","null","null","<div style=""font-size:60px;"">+</div>","","",""
"","","","","","html-keyboard-response","48","2.1.0","960516","pk9jezycqsj","hard","tortoise","null","null","<div style=""font-size:60px;"">+</div>","","",""
"","","","","","categorize-image","49","2.1.0","963836","pk9jezycqsj","hard","tortoise","1315","b","stimuli/experiment1a/low_B_101.png","low","B","true"
"","","","","","html-keyboard-response","50","2.1.0","964345","pk9jezycqsj","hard","tortoise","null","null","<div style=""font-size:60px;"">+</div>","","",""
"","","","","","html-keyboard-response","51","2.1.0","964857","pk9jezycqsj","hard","tortoise","null","null","<div style=""font-size:60px;"">+</div>","","",""
"","","","","","categorize-image","52","2.1.0","969427","pk9jezycqsj","hard","tortoise","2556","a","stimuli/experiment1a/low_A_000.png","low","A","true"
"","","","","","html-keyboard-response","53","2.1.0","969937","pk9jezycqsj","hard","tortoise","null","null","<div style=""font-size:60px;"">+</div>","","",""
"","","","","","html-keyboard-response","54","2.1.0","970452","pk9jezycqsj","hard","tortoise","null","null","<div style=""font-size:60px;"">+</div>","","",""
"","","","","","categorize-image","55","2.1.0","973091","pk9jezycqsj","hard","tortoise","634","a","stimuli/experiment1a/low_B_110.png","low","B","false"
"","","","","","html-keyboard-response","56","2.1.0","973602","pk9jezycqsj","hard","tortoise","null","null","<div style=""font-size:60px;"">+</div>","","",""
"","","","","","categorize-image","57","2.1.0","976546","pk9jezycqsj","hard","tortoise","931","b","stimuli/experiment1a/low_B_110.png","low","B","true"
"","","","","","html-keyboard-response","58","2.1.0","977055","pk9jezycqsj","hard","tortoise","null","null","<div style=""font-size:60px;"">+</div>","","",""
"","","","","","html-keyboard-response","59","2.1.0","977562","pk9jezycqsj","hard","tortoise","null","null","<div style=""font-size:60px;"">+</div>","","",""
"","","","","","categorize-image","60","2.1.0","980247","pk9jezycqsj","hard","tortoise","673","b","stimuli/experiment1a/low_B_111.png","low","B","true"
"","","","","","image-keyboard-response","61","null","981940","pk9jezycqsj","hard","tortoise","1691","q","stimuli/experiment_check.webp","","",""
"","","","","","html-keyboard-response","62","2.1.0","983333","pk9jezycqsj","hard","tortoise","1392","b","<p>Fluffy blesses you. Good job!</p><p>Press any key to continue.</p>","","",""
"","","","","","html-keyboard-response","63","2.1.0","985535","pk9jezycqsj","hard","tortoise","2201","b","<p><strong>TEST BLOCK 2 FINISHED</strong></p><p>Press any key to continue.</p>","","",""
"","","","","","html-keyboard-response","64","2.1.0","986041","pk9jezycqsj","hard","tortoise","null","null","<div style=""font-size:60px;"">+</div>","","",""
"","","","","","html-keyboard-response","65","2.1.0","986551","pk9jezycqsj","hard","tortoise","null","null","<div style=""font-size:60px;"">+</div>","","",""
"","","","","","categorize-image","66","2.1.0","989466","pk9jezycqsj","hard","tortoise","913","b","stimuli/experiment1a/low_A_001.png","low","A","false"
"","","","","","html-keyboard-response","67","2.1.0","989978","pk9jezycqsj","hard","tortoise","null","null","<div style=""font-size:60px;"">+</div>","","",""
"","","","","","categorize-image","68","2.1.0","993515","pk9jezycqsj","hard","tortoise","1528","b","stimuli/experiment1a/low_A_001.png","low","A","false"
"","","","","","html-keyboard-response","69","2.1.0","994029","pk9jezycqsj","hard","tortoise","null","null","<div style=""font-size:60px;"">+</div>","","",""
"","","","","","categorize-image","70","2.1.0","996298","pk9jezycqsj","hard","tortoise","256","a","stimuli/experiment1a/low_A_001.png","low","A","true"
"","","","","","html-keyboard-response","71","2.1.0","996808","pk9jezycqsj","hard","tortoise","null","null","<div style=""font-size:60px;"">+</div>","","",""
"","","","","","html-keyboard-response","72","2.1.0","997321","pk9jezycqsj","hard","tortoise","null","null","<div style=""font-size:60px;"">+</div>","","",""
"","","","","","categorize-image","73","2.1.0","1000089","pk9jezycqsj","hard","tortoise","752","a","stimuli/experiment1a/low_A_010.png","low","A","true"
"","","","","","html-keyboard-response","74","2.1.0","1000596","pk9jezycqsj","hard","tortoise","null","null","<div style=""font-size:60px;"">+</div>","","",""
"","","","","","html-keyboard-response","75","2.1.0","1001108","pk9jezycqsj","hard","tortoise","null","null","<div style=""font-size:60px;"">+</div>","","",""
"","","","","","categorize-image","76","2.1.0","1005223","pk9jezycqsj","hard","tortoise","2106","a","stimuli/experiment1a/low_A_000.png","low","A","true"
"","","","","","html-keyboard-response","77","2.1.0","1005733","pk9jezycqsj","hard","tortoise","null","null","<div style=""font-size:60px;"">+</div>","","",""
"","","","","","html-keyboard-response","78","2.1.0","1006247","pk9jezycqsj","hard","tortoise","null","null","<div style=""font-size:60px;"">+</div>","","",""
"","","","","","categorize-image","79","2.1.0","1009033","pk9jezycqsj","hard","tortoise","772","b","stimuli/experiment1a/low_B_111.png","low","B","true"
"","","","","","html-keyboard-response","80","2.1.0","1009541","pk9jezycqsj","hard","tortoise","null","null","<div style=""font-size:60px;"">+</div>","","",""
"","","","","","html-keyboard-response","81","2.1.0","1010049","pk9jezycqsj","hard","tortoise","null","null","<div style=""font-size:60px;"">+</div>","","",""
"","","","","","categorize-image","82","2.1.0","1013893","pk9jezycqsj","hard","tortoise","1828","b","stimuli/experiment1a/low_B_110.png","low","B","true"
"","","","","","html-keyboard-response","83","2.1.0","1014404","pk9jezycqsj","hard","tortoise","null","null","<div style=""font-size:60px;"">+</div>","","",""
"","","","","","html-keyboard-response","84","2.1.0","1014914","pk9jezycqsj","hard","tortoise","null","null","<div style=""font-size:60px;"">+</div>","","",""
"","","","","","categorize-image","85","2.1.0","1018074","pk9jezycqsj","hard","tortoise","1148","a","stimuli/experiment1a/low_A_000.png","low","A","true"
"","","","","","html-keyboard-response","86","2.1.0","1018576","pk9jezycqsj","hard","tortoise","null","null","<div style=""font-size:60px;"">+</div>","","",""
"","","","","","html-keyboard-response","87","2.1.0","1019091","pk9jezycqsj","hard","tortoise","null","null","<div style=""font-size:60px;"">+</div>","","",""
"","","","","","categorize-image","88","2.1.0","1021940","pk9jezycqsj","hard","tortoise","833","b","stimuli/experiment1a/low_B_101.png","low","B","true"
"","","","","","html-keyboard-response","89","2.1.0","1022452","pk9jezycqsj","hard","tortoise","null","null","<div style=""font-size:60px;"">+</div>","","",""
"","","","","","html-keyboard-response","90","2.1.0","1022963","pk9jezycqsj","hard","tortoise","null","null","<div style=""font-size:60px;"">+</div>","","",""
"","","","","","categorize-image","91","2.1.0","1025476","pk9jezycqsj","hard","tortoise","498","b","stimuli/experiment1a/low_B_111.png","low","B","true"
"","","","","","image-keyboard-response","92","null","1026901","pk9jezycqsj","hard","tortoise","1424","q","stimuli/experiment_check.webp","","",""
"","","","","","html-keyboard-response","93","2.1.0","1028164","pk9jezycqsj","hard","tortoise","1262","b","<p>Fluffy blesses you. Good job!</p><p>Press any key to continue.</p>","","",""
"","","","","","html-keyboard-response","94","2.1.0","1029614","pk9jezycqsj","hard","tortoise","1450","b","<p><strong>TEST BLOCK 3 FINISHED</strong></p><p>Press any key to continue.</p>","","",""
"","","","","","html-keyboard-response","95","2.1.0","1030128","pk9jezycqsj","hard","tortoise","null","null","<div style=""font-size:60px;"">+</div>","","",""
"","","","","","html-keyboard-response","96","2.1.0","1030638","pk9jezycqsj","hard","tortoise","null","null","<div style=""font-size:60px;"">+</div>","","",""
"","","","","","categorize-image","97","2.1.0","1033459","pk9jezycqsj","hard","tortoise","811","b","stimuli/experiment1a/low_B_110.png","low","B","true"
"","","","","","html-keyboard-response","98","2.1.0","1033970","pk9jezycqsj","hard","tortoise","null","null","<div style=""font-size:60px;"">+</div>","","",""
"","","","","","html-keyboard-response","99","2.1.0","1034479","pk9jezycqsj","hard","tortoise","null","null","<div style=""font-size:60px;"">+</div>","","",""
"","","","","","categorize-image","100","2.1.0","1037754","pk9jezycqsj","hard","tortoise","1269","a","stimuli/experiment1a/low_A_000.png","low","A","true"
"","","","","","html-keyboard-response","101","2.1.0","1038267","pk9jezycqsj","hard","tortoise","null","null","<div style=""font-size:60px;"">+</div>","","",""
"","","","","","html-keyboard-response","102","2.1.0","1038777","pk9jezycqsj","hard","tortoise","null","null","<div style=""font-size:60px;"">+</div>","","",""
"","","","","","categorize-image","103","2.1.0","1041494","pk9jezycqsj","hard","tortoise","701","b","stimuli/experiment1a/low_A_001.png","low","A","false"
"","","","","","html-keyboard-response","104","2.1.0","1042001","pk9jezycqsj","hard","tortoise","null","null","<div style=""font-size:60px;"">+</div>","","",""
"","","","","","categorize-image","105","2.1.0","1045619","pk9jezycqsj","hard","tortoise","1609","a","stimuli/experiment1a/low_A_001.png","low","A","true"
"","","","","","html-keyboard-response","106","2.1.0","1046128","pk9jezycqsj","hard","tortoise","null","null","<div style=""font-size:60px;"">+</div>","","",""
"","","","","","html-keyboard-response","107","2.1.0","1046637","pk9jezycqsj","hard","tortoise","null","null","<div style=""font-size:60px;"">+</div>","","",""
"","","","","","categorize-image","108","2.1.0","1050848","pk9jezycqsj","hard","tortoise","2194","b","stimuli/experiment1a/low_A_010.png","low","A","false"
"","","","","","html-keyboard-response","109","2.1.0","1051362","pk9jezycqsj","hard","tortoise","null","null","<div style=""font-size:60px;"">+</div>","","",""
"","","","","","categorize-image","110","2.1.0","1053663","pk9jezycqsj","hard","tortoise","296","a","stimuli/experiment1a/low_A_010.png","low","A","true"
"","","","","","html-keyboard-response","111","2.1.0","1054179","pk9jezycqsj","hard","tortoise","null","null","<div style=""font-size:60px;"">+</div>","","",""
"","","","","","html-keyboard-response","112","2.1.0","1054689","pk9jezycqsj","hard","tortoise","null","null","<div style=""font-size:60px;"">+</div>","","",""
"","","","","","categorize-image","113","2.1.0","1057588","pk9jezycqsj","hard","tortoise","890","b","stimuli/experiment1a/low_B_111.png","low","B","true"
"","","","","","html-keyboard-response","114","2.1.0","1058098","pk9jezycqsj","hard","tortoise","null","null","<div style=""font-size:60px;"">+</div>","","",""
"","","","","","html-keyboard-response","115","2.1.0","1058613","pk9jezycqsj","hard","tortoise","null","null","<div style=""font-size:60px;"">+</div>","","",""
"","","","","","categorize-image","116","2.1.0","1061176","pk9jezycqsj","hard","tortoise","555","b","stimuli/experiment1a/low_B_111.png","low","B","true"
"","","","","","html-keyboard-response","117","2.1.0","1061689","pk9jezycqsj","hard","tortoise","null","null","<div style=""font-size:60px;"">+</div>","","",""
"","","","","","html-keyboard-response","118","2.1.0","1062201","pk9jezycqsj","hard","tortoise","null","null","<div style=""font-size:60px;"">+</div>","","",""
"","","","","","categorize-image","119","2.1.0","1065281","pk9jezycqsj","hard","tortoise","1076","a","stimuli/experiment1a/low_A_000.png","low","A","true"
"","","","","","html-keyboard-response","120","2.1.0","1065794","pk9jezycqsj","hard","tortoise","null","null","<div style=""font-size:60px;"">+</div>","","",""
"","","","","","html-keyboard-response","121","2.1.0","1066309","pk9jezycqsj","hard","tortoise","null","null","<div style=""font-size:60px;"">+</div>","","",""
"","","","","","categorize-image","122","2.1.0","1069099","pk9jezycqsj","hard","tortoise","779","b","stimuli/experiment1a/low_B_101.png","low","B","true"
"","","","","","image-keyboard-response","123","null","1070380","pk9jezycqsj","hard","tortoise","1279","q","stimuli/experiment_check.webp","","",""
"","","","","","html-keyboard-response","124","2.1.0","1071447","pk9jezycqsj","hard","tortoise","1066","b","<p>Fluffy blesses you. Good job!</p><p>Press any key to continue.</p>","","",""
"","","","","","html-keyboard-response","125","2.1.0","1072178","pk9jezycqsj","hard","tortoise","730","b","<p><strong>TEST BLOCK 4 FINISHED</strong></p><p>Press any key to continue.</p>","","",""
"","","","","","html-keyboard-response","126","2.1.0","1072690","pk9jezycqsj","hard","tortoise","null","null","<div style=""font-size:60px;"">+</div>","","",""
"","","","","","html-keyboard-response","127","2.1.0","1073204","pk9jezycqsj","hard","tortoise","null","null","<div style=""font-size:60px;"">+</div>","","",""
"","","","","","categorize-image","128","2.1.0","1076126","pk9jezycqsj","hard","tortoise","910","b","stimuli/experiment1a/low_B_111.png","low","B","true"
"","","","","","html-keyboard-response","129","2.1.0","1076638","pk9jezycqsj","hard","tortoise","null","null","<div style=""font-size:60px;"">+</div>","","",""
"","","","","","html-keyboard-response","130","2.1.0","1077149","pk9jezycqsj","hard","tortoise","null","null","<div style=""font-size:60px;"">+</div>","","",""
"","","","","","categorize-image","131","2.1.0","1079943","pk9jezycqsj","hard","tortoise","789","a","stimuli/experiment1a/low_A_010.png","low","A","true"
"","","","","","html-keyboard-response","132","2.1.0","1080457","pk9jezycqsj","hard","tortoise","null","null","<div style=""font-size:60px;"">+</div>","","",""
"","","","","","html-keyboard-response","133","2.1.0","1080968","pk9jezycqsj","hard","tortoise","null","null","<div style=""font-size:60px;"">+</div>","","",""
"","","","","","categorize-image","134","2.1.0","1085235","pk9jezycqsj","hard","tortoise","2256","a","stimuli/experiment1a/low_B_110.png","low","B","false"
"","","","","","html-keyboard-response","135","2.1.0","1085747","pk9jezycqsj","hard","tortoise","null","null","<div style=""font-size:60px;"">+</div>","","",""
"","","","","","categorize-image","136","2.1.0","1087992","pk9jezycqsj","hard","tortoise","233","b","stimuli/experiment1a/low_B_110.png","low","B","true"
"","","","","","html-keyboard-response","137","2.1.0","1088502","pk9jezycqsj","hard","tortoise","null","null","<div style=""font-size:60px;"">+</div>","","",""
"","","","","","html-keyboard-response","138","2.1.0","1089013","pk9jezycqsj","hard","tortoise","null","null","<div style=""font-size:60px;"">+</div>","","",""
"","","","","","categorize-image","139","2.1.0","1091984","pk9jezycqsj","hard","tortoise","965","a","stimuli/experiment1a/low_B_101.png","low","B","false"
"","","","","","html-keyboard-response","140","2.1.0","1092498","pk9jezycqsj","hard","tortoise","null","null","<div style=""font-size:60px;"">+</div>","","",""
"","","","","","categorize-image","141","2.1.0","1094727","pk9jezycqsj","hard","tortoise","217","b","stimuli/experiment1a/low_B_101.png","low","B","true"
"","","","","","html-keyboard-response","142","2.1.0","1095238","pk9jezycqsj","hard","tortoise","null","null","<div style=""font-size:60px;"">+</div>","","",""
"","","","","","html-keyboard-response","143","2.1.0","1095750","pk9jezycqsj","hard","tortoise","null","null","<div style=""font-size:60px;"">+</div>","","",""
"","","","","","categorize-image","144","2.1.0","1099907","pk9jezycqsj","hard","tortoise","2150","a","stimuli/experiment1a/low_A_000.png","low","A","true"
"","","","","","html-keyboard-response","145","2.1.0","1100421","pk9jezycqsj","hard","tortoise","null","null","<div style=""font-size:60px;"">+</div>","","",""
"","","","","","html-keyboard-response","146","2.1.0","1100935","pk9jezycqsj","hard","tortoise","null","null","<div style=""font-size:60px;"">+</div>","","",""
"","","","","","categorize-image","147","2.1.0","1103636","pk9jezycqsj","hard","tortoise","688","b","stimuli/experiment1a/low_A_000.png","low","A","false"
"","","","","","html-keyboard-response","148","2.1.0","1104149","pk9jezycqsj","hard","tortoise","null","null","<div style=""font-size:60px;"">+</div>","","",""
"","","","","","categorize-image","149","2.1.0","1106514","pk9jezycqsj","hard","tortoise","353","a","stimuli/experiment1a/low_A_000.png","low","A","true"
"","","","","","html-keyboard-response","150","2.1.0","1107026","pk9jezycqsj","hard","tortoise","null","null","<div style=""font-size:60px;"">+</div>","","",""
"","","","","","html-keyboard-response","151","2.1.0","1107537","pk9jezycqsj","hard","tortoise","null","null","<div style=""font-size:60px;"">+</div>","","",""
"","","","","","categorize-image","152","2.1.0","1110893","pk9jezycqsj","hard","tortoise","1347","b","stimuli/experiment1a/low_A_001.png","low","A","false"
"","","","","","html-keyboard-response","153","2.1.0","1111406","pk9jezycqsj","hard","tortoise","null","null","<div style=""font-size:60px;"">+</div>","","",""
"","","","","","categorize-image","154","2.1.0","1113696","pk9jezycqsj","hard","tortoise","280","a","stimuli/experiment1a/low_A_001.png","low","A","true"
"","","","","","html-keyboard-response","155","2.1.0","1114208","pk9jezycqsj","hard","tortoise","null","null","<div style=""font-size:60px;"">+</div>","","",""
"","","","","","html-keyboard-response","156","2.1.0","1114720","pk9jezycqsj","hard","tortoise","null","null","<div style=""font-size:60px;"">+</div>","","",""
"","","","","","categorize-image","157","2.1.0","1117489","pk9jezycqsj","hard","tortoise","752","b","stimuli/experiment1a/low_B_111.png","low","B","true"
"","","","","","image-keyboard-response","158","null","1118520","pk9jezycqsj","hard","tortoise","1030","q","stimuli/experiment_check.webp","","",""
"","","","","","html-keyboard-response","159","2.1.0","1119582","pk9jezycqsj","hard","tortoise","1061","b","<p>Fluffy blesses you. Good job!</p><p>Press any key to continue.</p>","","",""
"","","","","","html-keyboard-response","160","2.1.0","1119947","pk9jezycqsj","hard","tortoise","364","b","<p><strong>TEST BLOCK 5 FINISHED</strong></p><p>Press any key to continue.</p>","","",""
"","","","","","html-keyboard-response","161","2.1.0","1120448","pk9jezycqsj","hard","tortoise","null","null","<div style=""font-size:60px;"">+</div>","","",""
"","","","","","html-keyboard-response","162","2.1.0","1120957","pk9jezycqsj","hard","tortoise","null","null","<div style=""font-size:60px;"">+</div>","","",""
"","","","","","categorize-image","163","2.1.0","1123614","pk9jezycqsj","hard","tortoise","655","b","stimuli/experiment1a/low_B_111.png","low","B","true"
"","","","","","html-keyboard-response","164","2.1.0","1124125","pk9jezycqsj","hard","tortoise","null","null","<div style=""font-size:60px;"">+</div>","","",""
"","","","","","html-keyboard-response","165","2.1.0","1124639","pk9jezycqsj","hard","tortoise","null","null","<div style=""font-size:60px;"">+</div>","","",""
"","","","","","categorize-image","166","2.1.0","1128798","pk9jezycqsj","hard","tortoise","2152","b","stimuli/experiment1a/low_B_110.png","low","B","true"
"","","","","","html-keyboard-response","167","2.1.0","1129306","pk9jezycqsj","hard","tortoise","null","null","<div style=""font-size:60px;"">+</div>","","",""
"","","","","","html-keyboard-response","168","2.1.0","1129816","pk9jezycqsj","hard","tortoise","null","null","<div style=""font-size:60px;"">+</div>","","",""
"","","","","","categorize-image","169","2.1.0","1132433","pk9jezycqsj","hard","tortoise","607","b","stimuli/experiment1a/low_B_111.png","low","B","true"
"","","","","","html-keyboard-response","170","2.1.0","1132942","pk9jezycqsj","hard","tortoise","null","null","<div style=""font-size:60px;"">+</div>","","",""
"","","","","","html-keyboard-response","171","2.1.0","1133452","pk9jezycqsj","hard","tortoise","null","null","<div style=""font-size:60px;"">+</div>","","",""
"","","","","","categorize-image","172","2.1.0","1136487","pk9jezycqsj","hard","tortoise","1024","a","stimuli/experiment1a/low_A_000.png","low","A","true"
"","","","","","html-keyboard-response","173","2.1.0","1137002","pk9jezycqsj","hard","tortoise","null","null","<div style=""font-size:60px;"">+</div>","","",""
"","","","","","html-keyboard-response","174","2.1.0","1137516","pk9jezycqsj","hard","tortoise","null","null","<div style=""font-size:60px;"">+</div>","","",""
"","","","","","categorize-image","175","2.1.0","1140125","pk9jezycqsj","hard","tortoise","592","b","stimuli/experiment1a/low_A_001.png","low","A","false"
"","","","","","html-keyboard-response","176","2.1.0","1140633","pk9jezycqsj","hard","tortoise","null","null","<div style=""font-size:60px;"">+</div>","","",""
"","","","","","categorize-image","177","2.1.0","1143028","pk9jezycqsj","hard","tortoise","386","a","stimuli/experiment1a/low_A_001.png","low","A","true"
"","","","","","html-keyboard-response","178","2.1.0","1143537","pk9jezycqsj","hard","tortoise","null","null","<div style=""font-size:60px;"">+</div>","","",""
"","","","","","html-keyboard-response","179","2.1.0","1144046","pk9jezycqsj","hard","tortoise","null","null","<div style=""font-size:60px;"">+</div>","","",""
"","","","","","categorize-image","180","2.1.0","1146932","pk9jezycqsj","hard","tortoise","876","a","stimuli/experiment1a/low_A_010.png","low","A","true"
"","","","","","html-keyboard-response","181","2.1.0","1147441","pk9jezycqsj","hard","tortoise","null","null","<div style=""font-size:60px;"">+</div>","","",""
"","","","","","html-keyboard-response","182","2.1.0","1147948","pk9jezycqsj","hard","tortoise","null","null","<div style=""font-size:60px;"">+</div>","","",""
"","","","","","categorize-image","183","2.1.0","1152741","pk9jezycqsj","hard","tortoise","2776","a","stimuli/experiment1a/low_B_101.png","low","B","false"
"","","","","","html-keyboard-response","184","2.1.0","1153253","pk9jezycqsj","hard","tortoise","null","null","<div style=""font-size:60px;"">+</div>","","",""
"","","","","","categorize-image","185","2.1.0","1155483","pk9jezycqsj","hard","tortoise","220","b","stimuli/experiment1a/low_B_101.png","low","B","true"
"","","","","","html-keyboard-response","186","2.1.0","1155999","pk9jezycqsj","hard","tortoise","null","null","<div style=""font-size:60px;"">+</div>","","",""
"","","","","","html-keyboard-response","187","2.1.0","1156511","pk9jezycqsj","hard","tortoise","null","null","<div style=""font-size:60px;"">+</div>","","",""
"","","","","","categorize-image","188","2.1.0","1159369","pk9jezycqsj","hard","tortoise","841","a","stimuli/experiment1a/low_A_000.png","low","A","true"
"","","","","","image-keyboard-response","189","null","1160410","pk9jezycqsj","hard","tortoise","1039","q","stimuli/experiment_check.webp","","",""
"","","","","","html-keyboard-response","190","2.1.0","1161133","pk9jezycqsj","hard","tortoise","722","b","<p>Fluffy blesses you. Good job!</p><p>Press any key to continue.</p>","","",""
"","","","","","html-keyboard-response","191","2.1.0","1161528","pk9jezycqsj","hard","tortoise","394","b","<p><strong>TEST BLOCK 6 FINISHED</strong></p><p>Press any key to continue.</p>","","",""
"","","","","","survey-text","192","2.1.0","1198785","pk9jezycqsj","hard","tortoise","37247","{""Language"":""yes"",""Art_background"":""no"",""Strategy"":""I thought that category A was brighter colors, and category B were more muted, almost sad colors""}","","","",""
"","","","","","survey-text","193","2.1.0","1219954","pk9jezycqsj","hard","tortoise","21165","{""Issues"":""no"",""Why_experiment"":""I honestly have no idea"",""Extra_info"":""""}","","","",""
