"success","timeout","failed_images","failed_audio","failed_video","trial_type","trial_index","plugin_version","time_elapsed","random_id","condition","participant","rt","response","stimulus","nameability","correct_category","correct"
"true","false","[]","[]","[]","preload","0","2.1.0","210","pkawvddjjjp","hard","cheetah","","","","","",""
"true","","","","","fullscreen","1","2.1.0","2038","pkawvddjjjp","hard","cheetah","822","","","","",""
"","","","","","survey-text","2","2.1.0","4942","pkawvddjjjp","hard","cheetah","2895","{""participant_id"":""cheetah""}","","","",""
"","","","","","html-keyboard-response","3","2.1.0","16679","pkawvddjjjp","hard","cheetah","11734"," ","
     <p> Welcome to the experiment! </p>

     <p> In this experiment, you will see a series of images. </p>
     <p> Your task is to categorize each image into one of two categories (A and B) as quickly and accurately as possible. </p>
     <p> You will receive feedback after each response. If you get the category wrong, you will be asked to choose the category again</p>
   ","","",""
"","","","","","html-keyboard-response","4","2.1.0","17191","pkawvddjjjp","hard","cheetah","null","null","<div style=""font-size:60px;"">+</div>","","",""
"","","","","","html-keyboard-response","5","2.1.0","17695","pkawvddjjjp","hard","cheetah","null","null","<div style=""font-size:60px;"">+</div>","","",""
"","","","","","categorize-image","6","2.1.0","39631","pkawvddjjjp","hard","cheetah","19925","a","stimuli/experiment1a/low_A_010.png","low","A","true"
"","","","","","html-keyboard-response","7","2.1.0","40150","pkawvddjjjp","hard","cheetah","null","null","<div style=""font-size:60px;"">+</div>","","",""
"","","","","","html-keyboard-response","8","2.1.0","40653","pkawvddjjjp","hard","cheetah","null","null","<div style=""font-size:60px;"">+</div>","","",""
"","","","","","categorize-image","9","2.1.0","45419","pkawvddjjjp","hard","cheetah","2756","b","stimuli/experiment1a/low_A_000.png","low","A","false"
"","","","","","html-keyboard-response","10","2.1.0","45933","pkawvddjjjp","hard","cheetah","null","null","<div style=""font-size:60px;"">+</div>","","",""
"","","","","","categorize-image","11","2.1.0","48374","pkawvddjjjp","hard","cheetah","433","a","stimuli/experiment1a/low_A_000.png","low","A","true"
"","","","","","html-keyboard-response","12","2.1.0","48877","pkawvddjjjp","hard","cheetah","null","null","<div style=""font-size:60px;"">+</div>","","",""
"","","","","","html-keyboard-response","13","2.1.0","49394","pkawvddjjjp","hard","cheetah","null","null","<div style=""font-size:60px;"">+</div>","","",""
"","","","","","categorize-image","14","2.1.0","55378","pkawvddjjjp","hard","cheetah","3981","a","stimuli/experiment1a/low_A_001.png","low","A","true"
"","","","","","html-keyboard-response","15","2.1.0","55894","pkawvddjjjp","hard","cheetah","null","null","<div style=""font-size:60px;"">+</div>","","",""
"","","","","","html-keyboard-response","16","2.1.0","56409","pkawvddjjjp","hard","cheetah","null","null","<div style=""font-size:60px;"">+</div>","","",""
"","","","","","categorize-image","17","2.1.0","60800","pkawvddjjjp","hard","cheetah","2374","b","stimuli/experiment1a/low_A_000.png","low","A","false"
"","","","","","html-keyboard-response","18","2.1.0","61306","pkawvddjjjp","hard","cheetah","null","null","<div style=""font-size:60px;"">+</div>","","",""
"","","","","","categorize-image","19","2.1.0","63578","pkawvddjjjp","hard","cheetah","256","a","stimuli/experiment1a/low_A_000.png","low","A","true"
"","","","","","html-keyboard-response","20","2.1.0","64095","pkawvddjjjp","hard","cheetah","null","null","<div style=""font-size:60px;"">+</div>","","",""
"","","","","","html-keyboard-response","21","2.1.0","64601","pkawvddjjjp","hard","cheetah","null","null","<div style=""font-size:60px;"">+</div>","","",""
"","","","","","categorize-image","22","2.1.0","67401","pkawvddjjjp","hard","cheetah","786","b","stimuli/experiment1a/low_B_101.png","low","B","true"
"","","","","","html-keyboard-response","23","2.1.0","67905","pkawvddjjjp","hard","cheetah","null","null","<div style=""font-size:60px;"">+</div>","","",""
"","","","","","html-keyboard-response","24","2.1.0","68422","pkawvddjjjp","hard","cheetah","null","null","<div style=""font-size:60px;"">+</div>","","",""
"","","","","","categorize-image","25","2.1.0","72756","pkawvddjjjp","hard","cheetah","2328","b","stimuli/experiment1a/low_B_111.png","low","B","true"
"","","","","","html-keyboard-response","26","2.1.0","73266","pkawvddjjjp","hard","cheetah","null","null","<div style=""font-size:60px;"">+</div>","","",""
"","","","","","html-keyboard-response","27","2.1.0","73778","pkawvddjjjp","hard","cheetah","null","null","<div style=""font-size:60px;"">+</div>","","",""
"","","","","","categorize-image","28","2.1.0","77144","pkawvddjjjp","hard","cheetah","1358","b","stimuli/experiment1a/low_B_110.png","low","B","true"
"","","","","","html-keyboard-response","29","2.1.0","77656","pkawvddjjjp","hard","cheetah","null","null","<div style=""font-size:60px;"">+</div>","","",""
"","","","","","html-keyboard-response","30","2.1.0","78167","pkawvddjjjp","hard","cheetah","null","null","<div style=""font-size:60px;"">+</div>","","",""
"","","","","","categorize-image","31","2.1.0","80867","pkawvddjjjp","hard","cheetah","683","b","stimuli/experiment1a/low_B_111.png","low","B","true"
"","","","","","image-keyboard-response","32","null","82912","pkawvddjjjp","hard","cheetah","2038","q","stimuli/experiment_check.webp","","",""
"","","","","","html-keyboard-response","33","2.1.0","84502","pkawvddjjjp","hard","cheetah","1589"," ","<p>Fluffy blesses you. Good job!</p><p>Press any key to continue.</p>","","",""
"","","","","","html-keyboard-response","34","2.1.0","86241","pkawvddjjjp","hard","cheetah","1738"," ","<p><strong>TEST BLOCK 1 FINISHED</strong></p><p>Press any key to continue.</p>","","",""
"","","","","","html-keyboard-response","35","2.1.0","86749","pkawvddjjjp","hard","cheetah","null","null","<div style=""font-size:60px;"">+</div>","","",""
"","","","","","html-keyboard-response","36","2.1.0","87251","pkawvddjjjp","hard","cheetah","null","null","<div style=""font-size:60px;"">+</div>","","",""
"","","","","","categorize-image","37","2.1.0","90014","pkawvddjjjp","hard","cheetah","751","a","stimuli/experiment1a/low_A_000.png","low","A","true"
"","","","","","html-keyboard-response","38","2.1.0","90530","pkawvddjjjp","hard","cheetah","null","null","<div style=""font-size:60px;"">+</div>","","",""
"","","","","","html-keyboard-response","39","2.1.0","91047","pkawvddjjjp","hard","cheetah","null","null","<div style=""font-size:60px;"">+</div>","","",""
"","","","","","categorize-image","40","2.1.0","93636","pkawvddjjjp","hard","cheetah","580","b","stimuli/experiment1a/low_B_111.png","low","B","true"
"","","","","","html-keyboard-response","41","2.1.0","94153","pkawvddjjjp","hard","cheetah","null","null","<div style=""font-size:60px;"">+</div>","","",""
"","","","","","html-keyboard-response","42","2.1.0","94658","pkawvddjjjp","hard","cheetah","null","null","<div style=""font-size:60px;"">+</div>","","",""
"","","","","","categorize-image","43","2.1.0","97220","pkawvddjjjp","hard","cheetah","544","a","stimuli/experiment1a/low_B_101.png","low","B","false"
"","","","","","html-keyboard-response","44","2.1.0","97729","pkawvddjjjp","hard","cheetah","null","null","<div style=""font-size:60px;"">+</div>","","",""
"","","","","","categorize-image","45","2.1.0","100050","pkawvddjjjp","hard","cheetah","303","b","stimuli/experiment1a/low_B_101.png","low","B","true"
"","","","","","html-keyboard-response","46","2.1.0","100564","pkawvddjjjp","hard","cheetah","null","null","<div style=""font-size:60px;"">+</div>","","",""
"","","","","","html-keyboard-response","47","2.1.0","101077","pkawvddjjjp","hard","cheetah","null","null","<div style=""font-size:60px;"">+</div>","","",""
"","","","","","categorize-image","48","2.1.0","103896","pkawvddjjjp","hard","cheetah","804","a","stimuli/experiment1a/low_A_010.png","low","A","true"
"","","","","","html-keyboard-response","49","2.1.0","104407","pkawvddjjjp","hard","cheetah","null","null","<div style=""font-size:60px;"">+</div>","","",""
"","","","","","html-keyboard-response","50","2.1.0","104909","pkawvddjjjp","hard","cheetah","null","null","<div style=""font-size:60px;"">+</div>","","",""
"","","","","","categorize-image","51","2.1.0","108020","pkawvddjjjp","hard","cheetah","1094","b","stimuli/experiment1a/low_B_111.png","low","B","true"
"","","","","","html-keyboard-response","52","2.1.0","108536","pkawvddjjjp","hard","cheetah","null","null","<div style=""font-size:60px;"">+</div>","","",""
"","","","","","html-keyboard-response","53","2.1.0","109050","pkawvddjjjp","hard","cheetah","null","null","<div style=""font-size:60px;"">+</div>","","",""
"","","","","","categorize-image","54","2.1.0","111626","pkawvddjjjp","hard","cheetah","569","a","stimuli/experiment1a/low_A_001.png","low","A","true"
"","","","","","html-keyboard-response","55","2.1.0","112143","pkawvddjjjp","hard","cheetah","null","null","<div style=""font-size:60px;"">+</div>","","",""
"","","","","","html-keyboard-response","56","2.1.0","112651","pkawvddjjjp","hard","cheetah","null","null","<div style=""font-size:60px;"">+</div>","","",""
"","","","","","categorize-image","57","2.1.0","115578","pkawvddjjjp","hard","cheetah","916","b","stimuli/experiment1a/low_B_110.png","low","B","true"
"","","","","","html-keyboard-response","58","2.1.0","116093","pkawvddjjjp","hard","cheetah","null","null","<div style=""font-size:60px;"">+</div>","","",""
"","","","","","html-keyboard-response","59","2.1.0","116601","pkawvddjjjp","hard","cheetah","null","null","<div style=""font-size:60px;"">+</div>","","",""
"","","","","","categorize-image","60","2.1.0","119109","pkawvddjjjp","hard","cheetah","501","a","stimuli/experiment1a/low_A_000.png","low","A","true"
"","","","","","image-keyboard-response","61","null","120290","pkawvddjjjp","hard","cheetah","1162","q","stimuli/experiment_check.webp","","",""
"","","","","","html-keyboard-response","62","2.1.0","121223","pkawvddjjjp","hard","cheetah","932"," ","<p>Fluffy blesses you. Good job!</p><p>Press any key to continue.</p>","","",""
"","","","","","html-keyboard-response","63","2.1.0","122050","pkawvddjjjp","hard","cheetah","826"," ","<p><strong>TEST BLOCK 2 FINISHED</strong></p><p>Press any key to continue.</p>","","",""
"","","","","","html-keyboard-response","64","2.1.0","122555","pkawvddjjjp","hard","cheetah","null","null","<div style=""font-size:60px;"">+</div>","","",""
"","","","","","html-keyboard-response","65","2.1.0","123065","pkawvddjjjp","hard","cheetah","null","null","<div style=""font-size:60px;"">+</div>","","",""
"","","","","","categorize-image","66","2.1.0","126173","pkawvddjjjp","hard","cheetah","1104","b","stimuli/experiment1a/low_B_111.png","low","B","true"
"","","","","","html-keyboard-response","67","2.1.0","126688","pkawvddjjjp","hard","cheetah","null","null","<div style=""font-size:60px;"">+</div>","","",""
"","","","","","html-keyboard-response","68","2.1.0","127193","pkawvddjjjp","hard","cheetah","null","null","<div style=""font-size:60px;"">+</div>","","",""
"","","","","","categorize-image","69","2.1.0","130059","pkawvddjjjp","hard","cheetah","861","b","stimuli/experiment1a/low_B_110.png","low","B","true"
"","","","","","html-keyboard-response","70","2.1.0","130565","pkawvddjjjp","hard","cheetah","null","null","<div style=""font-size:60px;"">+</div>","","",""
"","","","","","html-keyboard-response","71","2.1.0","131080","pkawvddjjjp","hard","cheetah","null","null","<div style=""font-size:60px;"">+</div>","","",""
"","","","","","categorize-image","72","2.1.0","133438","pkawvddjjjp","hard","cheetah","350","a","stimuli/experiment1a/low_A_000.png","low","A","true"
"","","","","","html-keyboard-response","73","2.1.0","133947","pkawvddjjjp","hard","cheetah","null","null","<div style=""font-size:60px;"">+</div>","","",""
"","","","","","html-keyboard-response","74","2.1.0","134463","pkawvddjjjp","hard","cheetah","null","null","<div style=""font-size:60px;"">+</div>","","",""
"","","","","","categorize-image","75","2.1.0","136977","pkawvddjjjp","hard","cheetah","504","b","stimuli/experiment1a/low_B_111.png","low","B","true"
"","","","","","html-keyboard-response","76","2.1.0","137494","pkawvddjjjp","hard","cheetah","null","null","<div style=""font-size:60px;"">+</div>","","",""
"","","","","","html-keyboard-response","77","2.1.0","138000","pkawvddjjjp","hard","cheetah","null","null","<div style=""font-size:60px;"">+</div>","","",""
"","","","","","categorize-image","78","2.1.0","140495","pkawvddjjjp","hard","cheetah","485","a","stimuli/experiment1a/low_B_101.png","low","B","false"
"","","","","","html-keyboard-response","79","2.1.0","141005","pkawvddjjjp","hard","cheetah","null","null","<div style=""font-size:60px;"">+</div>","","",""
"","","","","","categorize-image","80","2.1.0","143279","pkawvddjjjp","hard","cheetah","265","b","stimuli/experiment1a/low_B_101.png","low","B","true"
"","","","","","html-keyboard-response","81","2.1.0","143788","pkawvddjjjp","hard","cheetah","null","null","<div style=""font-size:60px;"">+</div>","","",""
"","","","","","html-keyboard-response","82","2.1.0","144303","pkawvddjjjp","hard","cheetah","null","null","<div style=""font-size:60px;"">+</div>","","",""
"","","","","","categorize-image","83","2.1.0","147110","pkawvddjjjp","hard","cheetah","790","a","stimuli/experiment1a/low_A_001.png","low","A","true"
"","","","","","html-keyboard-response","84","2.1.0","147619","pkawvddjjjp","hard","cheetah","null","null","<div style=""font-size:60px;"">+</div>","","",""
"","","","","","html-keyboard-response","85","2.1.0","148122","pkawvddjjjp","hard","cheetah","null","null","<div style=""font-size:60px;"">+</div>","","",""
"","","","","","categorize-image","86","2.1.0","150729","pkawvddjjjp","hard","cheetah","596","b","stimuli/experiment1a/low_A_010.png","low","A","false"
"","","","","","html-keyboard-response","87","2.1.0","151230","pkawvddjjjp","hard","cheetah","null","null","<div style=""font-size:60px;"">+</div>","","",""
"","","","","","categorize-image","88","2.1.0","153521","pkawvddjjjp","hard","cheetah","283","a","stimuli/experiment1a/low_A_010.png","low","A","true"
"","","","","","html-keyboard-response","89","2.1.0","154029","pkawvddjjjp","hard","cheetah","null","null","<div style=""font-size:60px;"">+</div>","","",""
"","","","","","html-keyboard-response","90","2.1.0","154544","pkawvddjjjp","hard","cheetah","null","null","<div style=""font-size:60px;"">+</div>","","",""
"","","","","","categorize-image","91","2.1.0","157213","pkawvddjjjp","hard","cheetah","652","a","stimuli/experiment1a/low_A_000.png","low","A","true"
"","","","","","image-keyboard-response","92","null","158191","pkawvddjjjp","hard","cheetah","976","q","stimuli/experiment_check.webp","","",""
"","","","","","html-keyboard-response","93","2.1.0","159271","pkawvddjjjp","hard","cheetah","1079"," ","<p>Fluffy blesses you. Good job!</p><p>Press any key to continue.</p>","","",""
"","","","","","html-keyboard-response","94","2.1.0","159758","pkawvddjjjp","hard","cheetah","486"," ","<p><strong>TEST BLOCK 3 FINISHED</strong></p><p>Press any key to continue.</p>","","",""
"","","","","","html-keyboard-response","95","2.1.0","160273","pkawvddjjjp","hard","cheetah","null","null","<div style=""font-size:60px;"">+</div>","","",""
"","","","","","html-keyboard-response","96","2.1.0","160778","pkawvddjjjp","hard","cheetah","null","null","<div style=""font-size:60px;"">+</div>","","",""
"","","","","","categorize-image","97","2.1.0","163402","pkawvddjjjp","hard","cheetah","616","b","stimuli/experiment1a/low_B_110.png","low","B","true"
"","","","","","html-keyboard-response","98","2.1.0","163906","pkawvddjjjp","hard","cheetah","null","null","<div style=""font-size:60px;"">+</div>","","",""
"","","","","","html-keyboard-response","99","2.1.0","164415","pkawvddjjjp","hard","cheetah","null","null","<div style=""font-size:60px;"">+</div>","","",""
"","","","","","categorize-image","100","2.1.0","167044","pkawvddjjjp","hard","cheetah","616","b","stimuli/experiment1a/low_B_111.png","low","B","true"
"","","","","","html-keyboard-response","101","2.1.0","167547","pkawvddjjjp","hard","cheetah","null","null","<div style=""font-size:60px;"">+</div>","","",""
"","","","","","html-keyboard-response","102","2.1.0","168063","pkawvddjjjp","hard","cheetah","null","null","<div style=""font-size:60px;"">+</div>","","",""
"","","","","","categorize-image","103","2.1.0","170565","pkawvddjjjp","hard","cheetah","491","a","stimuli/experiment1a/low_A_000.png","low","A","true"
"","","","","","html-keyboard-response","104","2.1.0","171077","pkawvddjjjp","hard","cheetah","null","null","<div style=""font-size:60px;"">+</div>","","",""
"","","","","","html-keyboard-response","105","2.1.0","171592","pkawvddjjjp","hard","cheetah","null","null","<div style=""font-size:60px;"">+</div>","","",""
"","","","","","categorize-image","106","2.1.0","174497","pkawvddjjjp","hard","cheetah","902","a","stimuli/experiment1a/low_A_000.png","low","A","true"
"","","","","","html-keyboard-response","107","2.1.0","175012","pkawvddjjjp","hard","cheetah","null","null","<div style=""font-size:60px;"">+</div>","","",""
"","","","","","html-keyboard-response","108","2.1.0","175521","pkawvddjjjp","hard","cheetah","null","null","<div style=""font-size:60px;"">+</div>","","",""
"","","","","","categorize-image","109","2.1.0","178096","pkawvddjjjp","hard","cheetah","561","b","stimuli/experiment1a/low_B_111.png","low","B","true"
"","","","","","html-keyboard-response","110","2.1.0","178604","pkawvddjjjp","hard","cheetah","null","null","<div style=""font-size:60px;"">+</div>","","",""
"","","","","","html-keyboard-response","111","2.1.0","179118","pkawvddjjjp","hard","cheetah","null","null","<div style=""font-size:60px;"">+</div>","","",""
"","","","","","categorize-image","112","2.1.0","182375","pkawvddjjjp","hard","cheetah","1242","a","stimuli/experiment1a/low_A_001.png","low","A","true"
"","","","","","html-keyboard-response","113","2.1.0","182890","pkawvddjjjp","hard","cheetah","null","null","<div style=""font-size:60px;"">+</div>","","",""
"","","","","","html-keyboard-response","114","2.1.0","183406","pkawvddjjjp","hard","cheetah","null","null","<div style=""font-size:60px;"">+</div>","","",""
"","","","","","categorize-image","115","2.1.0","186159","pkawvddjjjp","hard","cheetah","740","b","stimuli/experiment1a/low_B_101.png","low","B","true"
"","","","","","html-keyboard-response","116","2.1.0","186672","pkawvddjjjp","hard","cheetah","null","null","<div style=""font-size:60px;"">+</div>","","",""
"","","","","","html-keyboard-response","117","2.1.0","187173","pkawvddjjjp","hard","cheetah","null","null","<div style=""font-size:60px;"">+</div>","","",""
"","","","","","categorize-image","118","2.1.0","196540","pkawvddjjjp","hard","cheetah","7355","a","stimuli/experiment1a/low_A_010.png","low","A","true"
"","","","","","image-keyboard-response","119","null","197463","pkawvddjjjp","hard","cheetah","922","q","stimuli/experiment_check.webp","","",""
"","","","","","html-keyboard-response","120","2.1.0","197962","pkawvddjjjp","hard","cheetah","498"," ","<p>Fluffy blesses you. Good job!</p><p>Press any key to continue.</p>","","",""
"","","","","","html-keyboard-response","121","2.1.0","199633","pkawvddjjjp","hard","cheetah","1671"," ","<p><strong>TEST BLOCK 4 FINISHED</strong></p><p>Press any key to continue.</p>","","",""
"","","","","","html-keyboard-response","122","2.1.0","200148","pkawvddjjjp","hard","cheetah","null","null","<div style=""font-size:60px;"">+</div>","","",""
"","","","","","html-keyboard-response","123","2.1.0","200657","pkawvddjjjp","hard","cheetah","null","null","<div style=""font-size:60px;"">+</div>","","",""
"","","","","","categorize-image","124","2.1.0","203218","pkawvddjjjp","hard","cheetah","554","a","stimuli/experiment1a/low_A_000.png","low","A","true"
"","","","","","html-keyboard-response","125","2.1.0","203727","pkawvddjjjp","hard","cheetah","null","null","<div style=""font-size:60px;"">+</div>","","",""
"","","","","","html-keyboard-response","126","2.1.0","204229","pkawvddjjjp","hard","cheetah","null","null","<div style=""font-size:60px;"">+</div>","","",""
"","","","","","categorize-image","127","2.1.0","207061","pkawvddjjjp","hard","cheetah","817","b","stimuli/experiment1a/low_B_101.png","low","B","true"
"","","","","","html-keyboard-response","128","2.1.0","207575","pkawvddjjjp","hard","cheetah","null","null","<div style=""font-size:60px;"">+</div>","","",""
"","","","","","html-keyboard-response","129","2.1.0","208088","pkawvddjjjp","hard","cheetah","null","null","<div style=""font-size:60px;"">+</div>","","",""
"","","","","","categorize-image","130","2.1.0","211744","pkawvddjjjp","hard","cheetah","1648","a","stimuli/experiment1a/low_A_001.png","low","A","true"
"","","","","","html-keyboard-response","131","2.1.0","212245","pkawvddjjjp","hard","cheetah","null","null","<div style=""font-size:60px;"">+</div>","","",""
"","","","","","html-keyboard-response","132","2.1.0","212748","pkawvddjjjp","hard","cheetah","null","null","<div style=""font-size:60px;"">+</div>","","",""
"","","","","","categorize-image","133","2.1.0","215953","pkawvddjjjp","hard","cheetah","1191","b","stimuli/experiment1a/low_B_111.png","low","B","true"
"","","","","","html-keyboard-response","134","2.1.0","216463","pkawvddjjjp","hard","cheetah","null","null","<div style=""font-size:60px;"">+</div>","","",""
"","","","","","html-keyboard-response","135","2.1.0","216965","pkawvddjjjp","hard","cheetah","null","null","<div style=""font-size:60px;"">+</div>","","",""
"","","","","","categorize-image","136","2.1.0","220128","pkawvddjjjp","hard","cheetah","1151","b","stimuli/experiment1a/low_B_111.png","low","B","true"
"","","","","","html-keyboard-response","137","2.1.0","220639","pkawvddjjjp","hard","cheetah","null","null","<div style=""font-size:60px;"">+</div>","","",""
"","","","","","html-keyboard-response","138","2.1.0","221152","pkawvddjjjp","hard","cheetah","null","null","<div style=""font-size:60px;"">+</div>","","",""
"","","","","","categorize-image","139","2.1.0","224495","pkawvddjjjp","hard","cheetah","1325","a","stimuli/experiment1a/low_A_010.png","low","A","true"
"","","","","","html-keyboard-response","140","2.1.0","225004","pkawvddjjjp","hard","cheetah","null","null","<div style=""font-size:60px;"">+</div>","","",""
"","","","","","html-keyboard-response","141","2.1.0","225506","pkawvddjjjp","hard","cheetah","null","null","<div style=""font-size:60px;"">+</div>","","",""
"","","","","","categorize-image","142","2.1.0","228284","pkawvddjjjp","hard","cheetah","769","a","stimuli/experiment1a/low_A_000.png","low","A","true"
"","","","","","html-keyboard-response","143","2.1.0","228790","pkawvddjjjp","hard","cheetah","null","null","<div style=""font-size:60px;"">+</div>","","",""
"","","","","","html-keyboard-response","144","2.1.0","229298","pkawvddjjjp","hard","cheetah","null","null","<div style=""font-size:60px;"">+</div>","","",""
"","","","","","categorize-image","145","2.1.0","232262","pkawvddjjjp","hard","cheetah","959","b","stimuli/experiment1a/low_B_110.png","low","B","true"
"","","","","","image-keyboard-response","146","null","232833","pkawvddjjjp","hard","cheetah","568","a","stimuli/experiment_check.webp","","",""
"","","","","","html-keyboard-response","147","2.1.0","234617","pkawvddjjjp","hard","cheetah","1783"," ","<p>Fluffy is angered. Make sure to focus!</p><p>Press any key to continue.</p>","","",""
"","","","","","html-keyboard-response","148","2.1.0","235817","pkawvddjjjp","hard","cheetah","1199"," ","<p><strong>TEST BLOCK 5 FINISHED</strong></p><p>Press any key to continue.</p>","","",""
"","","","","","html-keyboard-response","149","2.1.0","236333","pkawvddjjjp","hard","cheetah","null","null","<div style=""font-size:60px;"">+</div>","","",""
"","","","","","html-keyboard-response","150","2.1.0","236834","pkawvddjjjp","hard","cheetah","null","null","<div style=""font-size:60px;"">+</div>","","",""
"","","","","","categorize-image","151","2.1.0","240136","pkawvddjjjp","hard","cheetah","1298","b","stimuli/experiment1a/low_B_111.png","low","B","true"
"","","","","","html-keyboard-response","152","2.1.0","240644","pkawvddjjjp","hard","cheetah","null","null","<div style=""font-size:60px;"">+</div>","","",""
"","","","","","html-keyboard-response","153","2.1.0","241145","pkawvddjjjp","hard","cheetah","null","null","<div style=""font-size:60px;"">+</div>","","",""
"","","","","","categorize-image","154","2.1.0","243754","pkawvddjjjp","hard","cheetah","601","b","stimuli/experiment1a/low_B_111.png","low","B","true"
"","","","","","html-keyboard-response","155","2.1.0","244257","pkawvddjjjp","hard","cheetah","null","null","<div style=""font-size:60px;"">+</div>","","",""
"","","","","","html-keyboard-response","156","2.1.0","244767","pkawvddjjjp","hard","cheetah","null","null","<div style=""font-size:60px;"">+</div>","","",""
"","","","","","categorize-image","157","2.1.0","248265","pkawvddjjjp","hard","cheetah","1484","b","stimuli/experiment1a/low_B_110.png","low","B","true"
"","","","","","html-keyboard-response","158","2.1.0","248767","pkawvddjjjp","hard","cheetah","null","null","<div style=""font-size:60px;"">+</div>","","",""
"","","","","","html-keyboard-response","159","2.1.0","249276","pkawvddjjjp","hard","cheetah","null","null","<div style=""font-size:60px;"">+</div>","","",""
"","","","","","categorize-image","160","2.1.0","252293","pkawvddjjjp","hard","cheetah","1005","a","stimuli/experiment1a/low_A_001.png","low","A","true"
"","","","","","html-keyboard-response","161","2.1.0","252807","pkawvddjjjp","hard","cheetah","null","null","<div style=""font-size:60px;"">+</div>","","",""
"","","","","","html-keyboard-response","162","2.1.0","253316","pkawvddjjjp","hard","cheetah","null","null","<div style=""font-size:60px;"">+</div>","","",""
"","","","","","categorize-image","163","2.1.0","256073","pkawvddjjjp","hard","cheetah","744","a","stimuli/experiment1a/low_A_000.png","low","A","true"
"","","","","","html-keyboard-response","164","2.1.0","256578","pkawvddjjjp","hard","cheetah","null","null","<div style=""font-size:60px;"">+</div>","","",""
"","","","","","html-keyboard-response","165","2.1.0","257092","pkawvddjjjp","hard","cheetah","null","null","<div style=""font-size:60px;"">+</div>","","",""
"","","","","","categorize-image","166","2.1.0","261624","pkawvddjjjp","hard","cheetah","2523","b","stimuli/experiment1a/low_B_101.png","low","B","true"
"","","","","","html-keyboard-response","167","2.1.0","262136","pkawvddjjjp","hard","cheetah","null","null","<div style=""font-size:60px;"">+</div>","","",""
"","","","","","html-keyboard-response","168","2.1.0","262646","pkawvddjjjp","hard","cheetah","null","null","<div style=""font-size:60px;"">+</div>","","",""
"","","","","","categorize-image","169","2.1.0","266522","pkawvddjjjp","hard","cheetah","1869","a","stimuli/experiment1a/low_A_010.png","low","A","true"
"","","","","","html-keyboard-response","170","2.1.0","267033","pkawvddjjjp","hard","cheetah","null","null","<div style=""font-size:60px;"">+</div>","","",""
"","","","","","html-keyboard-response","171","2.1.0","267549","pkawvddjjjp","hard","cheetah","null","null","<div style=""font-size:60px;"">+</div>","","",""
"","","","","","categorize-image","172","2.1.0","270454","pkawvddjjjp","hard","cheetah","899","a","stimuli/experiment1a/low_A_000.png","low","A","true"
"","","","","","image-keyboard-response","173","null","271847","pkawvddjjjp","hard","cheetah","1390","q","stimuli/experiment_check.webp","","",""
"","","","","","html-keyboard-response","174","2.1.0","272930","pkawvddjjjp","hard","cheetah","1082"," ","<p>Fluffy blesses you. Good job!</p><p>Press any key to continue.</p>","","",""
"","","","","","html-keyboard-response","175","2.1.0","273645","pkawvddjjjp","hard","cheetah","714"," ","<p><strong>TEST BLOCK 6 FINISHED</strong></p><p>Press any key to continue.</p>","","",""
"","","","","","survey-text","176","2.1.0","314162","pkawvddjjjp","hard","cheetah","40463","{""Language"":""yes"",""Art_background"":""no"",""Strategy"":""certain dull colors associated with A and more colorful dull in B especially purple ""}","","","",""
"","","","","","survey-text","177","2.1.0","337707","pkawvddjjjp","hard","cheetah","23541","{""Issues"":""no"",""Why_experiment"":""sorting task skills based off intuition "",""Extra_info"":""no""}","","","",""
