"success","timeout","failed_images","failed_audio","failed_video","trial_type","trial_index","plugin_version","time_elapsed","random_id","condition","participant","rt","response","stimulus","nameability","correct_category","correct"
"true","false","[]","[]","[]","preload","0","2.1.0","102","pkhfs51f49x","easy","turtle","","","","","",""
"true","","","","","fullscreen","1","2.1.0","3726","pkhfs51f49x","easy","turtle","2620","","","","",""
"","","","","","survey-text","2","2.1.0","8632","pkhfs51f49x","easy","turtle","4902","{""participant_id"":""turtle""}","","","",""
"","","","","","html-keyboard-response","3","2.1.0","15676","pkhfs51f49x","easy","turtle","7042"," ","
     <p> Welcome to the experiment! </p>

     <p> In this experiment, you will see a series of images. </p>
     <p> Your task is to categorize each image into one of two categories (A and B) as quickly and accurately as possible. </p>
     <p> You will receive feedback after each response. If you get the category wrong, you will be asked to choose the category again</p>
   ","","",""
"","","","","","html-keyboard-response","4","2.1.0","16177","pkhfs51f49x","easy","turtle","null","null","<div style=""font-size:60px;"">+</div>","","",""
"","","","","","html-keyboard-response","5","2.1.0","16681","pkhfs51f49x","easy","turtle","null","null","<div style=""font-size:60px;"">+</div>","","",""
"","","","","","categorize-image","6","2.1.0","22261","pkhfs51f49x","easy","turtle","3576","a","stimuli/experiment1a/high_A_000.png","high","A","true"
"","","","","","html-keyboard-response","7","2.1.0","22765","pkhfs51f49x","easy","turtle","null","null","<div style=""font-size:60px;"">+</div>","","",""
"","","","","","html-keyboard-response","8","2.1.0","23266","pkhfs51f49x","easy","turtle","null","null","<div style=""font-size:60px;"">+</div>","","",""
"","","","","","categorize-image","9","2.1.0","26755","pkhfs51f49x","easy","turtle","1486","b","stimuli/experiment1a/high_A_010.png","high","A","false"
"","","","","","html-keyboard-response","10","2.1.0","27257","pkhfs51f49x","easy","turtle","null","null","<div style=""font-size:60px;"">+</div>","","",""
"","","","","","categorize-image","11","2.1.0","30356","pkhfs51f49x","easy","turtle","1096","a","stimuli/experiment1a/high_A_010.png","high","A","true"
"","","","","","html-keyboard-response","12","2.1.0","30859","pkhfs51f49x","easy","turtle","null","null","<div style=""font-size:60px;"">+</div>","","",""
"","","","","","html-keyboard-response","13","2.1.0","31360","pkhfs51f49x","easy","turtle","null","null","<div style=""font-size:60px;"">+</div>","","",""
"","","","","","categorize-image","14","2.1.0","34047","pkhfs51f49x","easy","turtle","684","b","stimuli/experiment1a/high_B_101.png","high","B","true"
"","","","","","html-keyboard-response","15","2.1.0","34549","pkhfs51f49x","easy","turtle","null","null","<div style=""font-size:60px;"">+</div>","","",""
"","","","","","html-keyboard-response","16","2.1.0","35051","pkhfs51f49x","easy","turtle","null","null","<div style=""font-size:60px;"">+</div>","","",""
"","","","","","categorize-image","17","2.1.0","37737","pkhfs51f49x","easy","turtle","682","a","stimuli/experiment1a/high_A_000.png","high","A","true"
"","","","","","html-keyboard-response","18","2.1.0","38239","pkhfs51f49x","easy","turtle","null","null","<div style=""font-size:60px;"">+</div>","","",""
"","","","","","html-keyboard-response","19","2.1.0","38741","pkhfs51f49x","easy","turtle","null","null","<div style=""font-size:60px;"">+</div>","","",""
"","","","","","categorize-image","20","2.1.0","41451","pkhfs51f49x","easy","turtle","707","a","stimuli/experiment1a/high_A_001.png","high","A","true"
"","","","","","html-keyboard-response","21","2.1.0","41954","pkhfs51f49x","easy","turtle","null","null","<div style=""font-size:60px;"">+</div>","","",""
"","","","","","html-keyboard-response","22","2.1.0","42456","pkhfs51f49x","easy","turtle","null","null","<div style=""font-size:60px;"">+</div>","","",""
"","","","","","categorize-image","23","2.1.0","45906","pkhfs51f49x","easy","turtle","1447","b","stimuli/experiment1a/high_B_110.png","high","B","true"
"","","","","","html-keyboard-response","24","2.1.0","46408","pkhfs51f49x","easy","turtle","null","null","<div style=""font-size:60px;"">+</div>","","",""
"","","","","","html-keyboard-response","25","2.1.0","46910","pkhfs51f49x","easy","turtle","null","null","<div style=""font-size:60px;"">+</div>","","",""
"","","","","","categorize-image","26","2.1.0","49702","pkhfs51f49x","easy","turtle","788","b","stimuli/experiment1a/high_B_111.png","high","B","true"
"","","","","","html-keyboard-response","27","2.1.0","50205","pkhfs51f49x","easy","turtle","null","null","<div style=""font-size:60px;"">+</div>","","",""
"","","","","","html-keyboard-response","28","2.1.0","50706","pkhfs51f49x","easy","turtle","null","null","<div style=""font-size:60px;"">+</div>","","",""
"","","","","","categorize-image","29","2.1.0","53224","pkhfs51f49x","easy","turtle","516","b","stimuli/experiment1a/high_B_111.png","high","B","true"
"","","","","","image-keyboard-response","30","null","55512","pkhfs51f49x","easy","turtle","2284","q","stimuli/experiment_check.webp","","",""
"","","","","","html-keyboard-response","31","2.1.0","57515","pkhfs51f49x","easy","turtle","null","null","<p>Fluffy blesses you. Good job!</p><p>Press any key to continue.</p>","","",""
"","","","","","html-keyboard-response","32","2.1.0","58845","pkhfs51f49x","easy","turtle","1330"," ","<p><strong>TEST BLOCK 1 FINISHED</strong></p><p>Press any key to continue.</p>","","",""
"","","","","","html-keyboard-response","33","2.1.0","59347","pkhfs51f49x","easy","turtle","null","null","<div style=""font-size:60px;"">+</div>","","",""
"","","","","","html-keyboard-response","34","2.1.0","59848","pkhfs51f49x","easy","turtle","null","null","<div style=""font-size:60px;"">+</div>","","",""
"","","","","","categorize-image","35","2.1.0","62928","pkhfs51f49x","easy","turtle","1076","b","stimuli/experiment1a/high_B_111.png","high","B","true"
"","","","","","html-keyboard-response","36","2.1.0","63431","pkhfs51f49x","easy","turtle","null","null","<div style=""font-size:60px;"">+</div>","","",""
"","","","","","html-keyboard-response","37","2.1.0","63933","pkhfs51f49x","easy","turtle","null","null","<div style=""font-size:60px;"">+</div>","","",""
"","","","","","categorize-image","38","2.1.0","66407","pkhfs51f49x","easy","turtle","471","a","stimuli/experiment1a/high_A_000.png","high","A","true"
"","","","","","html-keyboard-response","39","2.1.0","66909","pkhfs51f49x","easy","turtle","null","null","<div style=""font-size:60px;"">+</div>","","",""
"","","","","","html-keyboard-response","40","2.1.0","67411","pkhfs51f49x","easy","turtle","null","null","<div style=""font-size:60px;"">+</div>","","",""
"","","","","","categorize-image","41","2.1.0","70389","pkhfs51f49x","easy","turtle","974","b","stimuli/experiment1a/high_B_110.png","high","B","true"
"","","","","","html-keyboard-response","42","2.1.0","70891","pkhfs51f49x","easy","turtle","null","null","<div style=""font-size:60px;"">+</div>","","",""
"","","","","","html-keyboard-response","43","2.1.0","71393","pkhfs51f49x","easy","turtle","null","null","<div style=""font-size:60px;"">+</div>","","",""
"","","","","","categorize-image","44","2.1.0","74464","pkhfs51f49x","easy","turtle","1068","b","stimuli/experiment1a/high_A_010.png","high","A","false"
"","","","","","html-keyboard-response","45","2.1.0","74966","pkhfs51f49x","easy","turtle","null","null","<div style=""font-size:60px;"">+</div>","","",""
"","","","","","categorize-image","46","2.1.0","78051","pkhfs51f49x","easy","turtle","1082","a","stimuli/experiment1a/high_A_010.png","high","A","true"
"","","","","","html-keyboard-response","47","2.1.0","78553","pkhfs51f49x","easy","turtle","null","null","<div style=""font-size:60px;"">+</div>","","",""
"","","","","","html-keyboard-response","48","2.1.0","79055","pkhfs51f49x","easy","turtle","null","null","<div style=""font-size:60px;"">+</div>","","",""
"","","","","","categorize-image","49","2.1.0","81822","pkhfs51f49x","easy","turtle","763","a","stimuli/experiment1a/high_A_001.png","high","A","true"
"","","","","","html-keyboard-response","50","2.1.0","82325","pkhfs51f49x","easy","turtle","null","null","<div style=""font-size:60px;"">+</div>","","",""
"","","","","","html-keyboard-response","51","2.1.0","82826","pkhfs51f49x","easy","turtle","null","null","<div style=""font-size:60px;"">+</div>","","",""
"","","","","","categorize-image","52","2.1.0","85569","pkhfs51f49x","easy","turtle","740","a","stimuli/experiment1a/high_A_000.png","high","A","true"
"","","","","","html-keyboard-response","53","2.1.0","86072","pkhfs51f49x","easy","turtle","null","null","<div style=""font-size:60px;"">+</div>","","",""
"","","","","","html-keyboard-response","54","2.1.0","86574","pkhfs51f49x","easy","turtle","null","null","<div style=""font-size:60px;"">+</div>","","",""
"","","","","","categorize-image","55","2.1.0","89440","pkhfs51f49x","easy","turtle","863","b","stimuli/experiment1a/high_B_111.png","high","B","true"
"","","","","","html-keyboard-response","56","2.1.0","89943","pkhfs51f49x","easy","turtle","null","null","<div style=""font-size:60px;"">+</div>","","",""
"","","","","","html-keyboard-response","57","2.1.0","90444","pkhfs51f49x","easy","turtle","null","null","<div style=""font-size:60px;"">+</div>","","",""
"","","","","","categorize-image","58","2.1.0","93195","pkhfs51f49x","easy","turtle","748","a","stimuli/experiment1a/high_B_101.png","high","B","false"
"","","","","","html-keyboard-response","59","2.1.0","93697","pkhfs51f49x","easy","turtle","null","null","<div style=""font-size:60px;"">+</div>","","",""
"","","","","","categorize-image","60","2.1.0","96408","pkhfs51f49x","easy","turtle","708","b","stimuli/experiment1a/high_B_101.png","high","B","true"
"","","","","","image-keyboard-response","61","null","97714","pkhfs51f49x","easy","turtle","1305","q","stimuli/experiment_check.webp","","",""
"","","","","","html-keyboard-response","62","2.1.0","99161","pkhfs51f49x","easy","turtle","1446"," ","<p>Fluffy blesses you. Good job!</p><p>Press any key to continue.</p>","","",""
"","","","","","html-keyboard-response","63","2.1.0","100322","pkhfs51f49x","easy","turtle","1160"," ","<p><strong>TEST BLOCK 2 FINISHED</strong></p><p>Press any key to continue.</p>","","",""
"","","","","","html-keyboard-response","64","2.1.0","100823","pkhfs51f49x","easy","turtle","null","null","<div style=""font-size:60px;"">+</div>","","",""
"","","","","","html-keyboard-response","65","2.1.0","101326","pkhfs51f49x","easy","turtle","null","null","<div style=""font-size:60px;"">+</div>","","",""
"","","","","","categorize-image","66","2.1.0","103947","pkhfs51f49x","easy","turtle","618","a","stimuli/experiment1a/high_A_000.png","high","A","true"
"","","","","","html-keyboard-response","67","2.1.0","104449","pkhfs51f49x","easy","turtle","null","null","<div style=""font-size:60px;"">+</div>","","",""
"","","","","","html-keyboard-response","68","2.1.0","104951","pkhfs51f49x","easy","turtle","null","null","<div style=""font-size:60px;"">+</div>","","",""
"","","","","","categorize-image","69","2.1.0","107452","pkhfs51f49x","easy","turtle","498","b","stimuli/experiment1a/high_B_111.png","high","B","true"
"","","","","","html-keyboard-response","70","2.1.0","107954","pkhfs51f49x","easy","turtle","null","null","<div style=""font-size:60px;"">+</div>","","",""
"","","","","","html-keyboard-response","71","2.1.0","108455","pkhfs51f49x","easy","turtle","null","null","<div style=""font-size:60px;"">+</div>","","",""
"","","","","","categorize-image","72","2.1.0","111646","pkhfs51f49x","easy","turtle","1188","a","stimuli/experiment1a/high_A_010.png","high","A","true"
"","","","","","html-keyboard-response","73","2.1.0","112149","pkhfs51f49x","easy","turtle","null","null","<div style=""font-size:60px;"">+</div>","","",""
"","","","","","html-keyboard-response","74","2.1.0","112651","pkhfs51f49x","easy","turtle","null","null","<div style=""font-size:60px;"">+</div>","","",""
"","","","","","categorize-image","75","2.1.0","115343","pkhfs51f49x","easy","turtle","688","b","stimuli/experiment1a/high_B_101.png","high","B","true"
"","","","","","html-keyboard-response","76","2.1.0","115845","pkhfs51f49x","easy","turtle","null","null","<div style=""font-size:60px;"">+</div>","","",""
"","","","","","html-keyboard-response","77","2.1.0","116347","pkhfs51f49x","easy","turtle","null","null","<div style=""font-size:60px;"">+</div>","","",""
"","","","","","categorize-image","78","2.1.0","119093","pkhfs51f49x","easy","turtle","742","b","stimuli/experiment1a/high_B_111.png","high","B","true"
"","","","","","html-keyboard-response","79","2.1.0","119595","pkhfs51f49x","easy","turtle","null","null","<div style=""font-size:60px;"">+</div>","","",""
"","","","","","html-keyboard-response","80","2.1.0","120097","pkhfs51f49x","easy","turtle","null","null","<div style=""font-size:60px;"">+</div>","","",""
"","","","","","categorize-image","81","2.1.0","122956","pkhfs51f49x","easy","turtle","856","a","stimuli/experiment1a/high_A_001.png","high","A","true"
"","","","","","html-keyboard-response","82","2.1.0","123459","pkhfs51f49x","easy","turtle","null","null","<div style=""font-size:60px;"">+</div>","","",""
"","","","","","html-keyboard-response","83","2.1.0","123960","pkhfs51f49x","easy","turtle","null","null","<div style=""font-size:60px;"">+</div>","","",""
"","","","","","categorize-image","84","2.1.0","126663","pkhfs51f49x","easy","turtle","700","a","stimuli/experiment1a/high_A_000.png","high","A","true"
"","","","","","html-keyboard-response","85","2.1.0","127166","pkhfs51f49x","easy","turtle","null","null","<div style=""font-size:60px;"">+</div>","","",""
"","","","","","html-keyboard-response","86","2.1.0","127668","pkhfs51f49x","easy","turtle","null","null","<div style=""font-size:60px;"">+</div>","","",""
"","","","","","categorize-image","87","2.1.0","130789","pkhfs51f49x","easy","turtle","1118","b","stimuli/experiment1a/high_B_110.png","high","B","true"
"","","","","","image-keyboard-response","88","null","131967","pkhfs51f49x","easy","turtle","1176","q","stimuli/experiment_check.webp","","",""
"","","","","","html-keyboard-response","89","2.1.0","133221","pkhfs51f49x","easy","turtle","1252"," ","<p>Fluffy blesses you. Good job!</p><p>Press any key to continue.</p>","","",""
"","","","","","html-keyboard-response","90","2.1.0","133770","pkhfs51f49x","easy","turtle","549"," ","<p><strong>TEST BLOCK 3 FINISHED</strong></p><p>Press any key to continue.</p>","","",""
"","","","","","html-keyboard-response","91","2.1.0","134271","pkhfs51f49x","easy","turtle","null","null","<div style=""font-size:60px;"">+</div>","","",""
"","","","","","html-keyboard-response","92","2.1.0","134774","pkhfs51f49x","easy","turtle","null","null","<div style=""font-size:60px;"">+</div>","","",""
"","","","","","categorize-image","93","2.1.0","137663","pkhfs51f49x","easy","turtle","886","a","stimuli/experiment1a/high_A_001.png","high","A","true"
"","","","","","html-keyboard-response","94","2.1.0","138165","pkhfs51f49x","easy","turtle","null","null","<div style=""font-size:60px;"">+</div>","","",""
"","","","","","html-keyboard-response","95","2.1.0","138667","pkhfs51f49x","easy","turtle","null","null","<div style=""font-size:60px;"">+</div>","","",""
"","","","","","categorize-image","96","2.1.0","141220","pkhfs51f49x","easy","turtle","550","b","stimuli/experiment1a/high_B_110.png","high","B","true"
"","","","","","html-keyboard-response","97","2.1.0","141723","pkhfs51f49x","easy","turtle","null","null","<div style=""font-size:60px;"">+</div>","","",""
"","","","","","html-keyboard-response","98","2.1.0","142224","pkhfs51f49x","easy","turtle","null","null","<div style=""font-size:60px;"">+</div>","","",""
"","","","","","categorize-image","99","2.1.0","144930","pkhfs51f49x","easy","turtle","703","b","stimuli/experiment1a/high_B_111.png","high","B","true"
"","","","","","html-keyboard-response","100","2.1.0","145432","pkhfs51f49x","easy","turtle","null","null","<div style=""font-size:60px;"">+</div>","","",""
"","","","","","html-keyboard-response","101","2.1.0","145934","pkhfs51f49x","easy","turtle","null","null","<div style=""font-size:60px;"">+</div>","","",""
"","","","","","categorize-image","102","2.1.0","148413","pkhfs51f49x","easy","turtle","476","a","stimuli/experiment1a/high_A_000.png","high","A","true"
"","","","","","html-keyboard-response","103","2.1.0","148916","pkhfs51f49x","easy","turtle","null","null","<div style=""font-size:60px;"">+</div>","","",""
"","","","","","html-keyboard-response","104","2.1.0","149417","pkhfs51f49x","easy","turtle","null","null","<div style=""font-size:60px;"">+</div>","","",""
"","","","","","categorize-image","105","2.1.0","152039","pkhfs51f49x","easy","turtle","619","b","stimuli/experiment1a/high_B_111.png","high","B","true"
"","","","","","html-keyboard-response","106","2.1.0","152540","pkhfs51f49x","easy","turtle","null","null","<div style=""font-size:60px;"">+</div>","","",""
"","","","","","html-keyboard-response","107","2.1.0","153043","pkhfs51f49x","easy","turtle","null","null","<div style=""font-size:60px;"">+</div>","","",""
"","","","","","categorize-image","108","2.1.0","156081","pkhfs51f49x","easy","turtle","1036","b","stimuli/experiment1a/high_B_101.png","high","B","true"
"","","","","","html-keyboard-response","109","2.1.0","156584","pkhfs51f49x","easy","turtle","null","null","<div style=""font-size:60px;"">+</div>","","",""
"","","","","","html-keyboard-response","110","2.1.0","157085","pkhfs51f49x","easy","turtle","null","null","<div style=""font-size:60px;"">+</div>","","",""
"","","","","","categorize-image","111","2.1.0","159598","pkhfs51f49x","easy","turtle","510","a","stimuli/experiment1a/high_A_000.png","high","A","true"
"","","","","","html-keyboard-response","112","2.1.0","160101","pkhfs51f49x","easy","turtle","null","null","<div style=""font-size:60px;"">+</div>","","",""
"","","","","","html-keyboard-response","113","2.1.0","160602","pkhfs51f49x","easy","turtle","null","null","<div style=""font-size:60px;"">+</div>","","",""
"","","","","","categorize-image","114","2.1.0","163722","pkhfs51f49x","easy","turtle","1117","a","stimuli/experiment1a/high_A_010.png","high","A","true"
"","","","","","image-keyboard-response","115","null","164828","pkhfs51f49x","easy","turtle","1105","q","stimuli/experiment_check.webp","","",""
"","","","","","html-keyboard-response","116","2.1.0","165741","pkhfs51f49x","easy","turtle","912"," ","<p>Fluffy blesses you. Good job!</p><p>Press any key to continue.</p>","","",""
"","","","","","html-keyboard-response","117","2.1.0","166265","pkhfs51f49x","easy","turtle","524"," ","<p><strong>TEST BLOCK 4 FINISHED</strong></p><p>Press any key to continue.</p>","","",""
"","","","","","html-keyboard-response","118","2.1.0","166766","pkhfs51f49x","easy","turtle","null","null","<div style=""font-size:60px;"">+</div>","","",""
"","","","","","html-keyboard-response","119","2.1.0","167268","pkhfs51f49x","easy","turtle","null","null","<div style=""font-size:60px;"">+</div>","","",""
"","","","","","categorize-image","120","2.1.0","170379","pkhfs51f49x","easy","turtle","1108","b","stimuli/experiment1a/high_B_111.png","high","B","true"
"","","","","","html-keyboard-response","121","2.1.0","170882","pkhfs51f49x","easy","turtle","null","null","<div style=""font-size:60px;"">+</div>","","",""
"","","","","","html-keyboard-response","122","2.1.0","171384","pkhfs51f49x","easy","turtle","null","null","<div style=""font-size:60px;"">+</div>","","",""
"","","","","","categorize-image","123","2.1.0","175714","pkhfs51f49x","easy","turtle","2327","b","stimuli/experiment1a/high_B_101.png","high","B","true"
"","","","","","html-keyboard-response","124","2.1.0","176216","pkhfs51f49x","easy","turtle","null","null","<div style=""font-size:60px;"">+</div>","","",""
"","","","","","html-keyboard-response","125","2.1.0","176718","pkhfs51f49x","easy","turtle","null","null","<div style=""font-size:60px;"">+</div>","","",""
"","","","","","categorize-image","126","2.1.0","179409","pkhfs51f49x","easy","turtle","688","b","stimuli/experiment1a/high_B_111.png","high","B","true"
"","","","","","html-keyboard-response","127","2.1.0","179911","pkhfs51f49x","easy","turtle","null","null","<div style=""font-size:60px;"">+</div>","","",""
"","","","","","html-keyboard-response","128","2.1.0","180413","pkhfs51f49x","easy","turtle","null","null","<div style=""font-size:60px;"">+</div>","","",""
"","","","","","categorize-image","129","2.1.0","183397","pkhfs51f49x","easy","turtle","981","b","stimuli/experiment1a/high_B_110.png","high","B","true"
"","","","","","html-keyboard-response","130","2.1.0","183900","pkhfs51f49x","easy","turtle","null","null","<div style=""font-size:60px;"">+</div>","","",""
"","","","","","html-keyboard-response","131","2.1.0","184401","pkhfs51f49x","easy","turtle","null","null","<div style=""font-size:60px;"">+</div>","","",""
"","","","","","categorize-image","132","2.1.0","186980","pkhfs51f49x","easy","turtle","576","a","stimuli/experiment1a/high_A_000.png","high","A","true"
"","","","","","html-keyboard-response","133","2.1.0","187483","pkhfs51f49x","easy","turtle","null","null","<div style=""font-size:60px;"">+</div>","","",""
"","","","","","html-keyboard-response","134","2.1.0","187984","pkhfs51f49x","easy","turtle","null","null","<div style=""font-size:60px;"">+</div>","","",""
"","","","","","categorize-image","135","2.1.0","190888","pkhfs51f49x","easy","turtle","901","a","stimuli/experiment1a/high_A_000.png","high","A","true"
"","","","","","html-keyboard-response","136","2.1.0","191390","pkhfs51f49x","easy","turtle","null","null","<div style=""font-size:60px;"">+</div>","","",""
"","","","","","html-keyboard-response","137","2.1.0","191891","pkhfs51f49x","easy","turtle","null","null","<div style=""font-size:60px;"">+</div>","","",""
"","","","","","categorize-image","138","2.1.0","194859","pkhfs51f49x","easy","turtle","965","a","stimuli/experiment1a/high_A_010.png","high","A","true"
"","","","","","html-keyboard-response","139","2.1.0","195361","pkhfs51f49x","easy","turtle","null","null","<div style=""font-size:60px;"">+</div>","","",""
"","","","","","html-keyboard-response","140","2.1.0","195863","pkhfs51f49x","easy","turtle","null","null","<div style=""font-size:60px;"">+</div>","","",""
"","","","","","categorize-image","141","2.1.0","198876","pkhfs51f49x","easy","turtle","1011","a","stimuli/experiment1a/high_A_001.png","high","A","true"
"","","","","","image-keyboard-response","142","null","200825","pkhfs51f49x","easy","turtle","1947","q","stimuli/experiment_check.webp","","",""
"","","","","","html-keyboard-response","143","2.1.0","201812","pkhfs51f49x","easy","turtle","986"," ","<p>Fluffy blesses you. Good job!</p><p>Press any key to continue.</p>","","",""
"","","","","","html-keyboard-response","144","2.1.0","202434","pkhfs51f49x","easy","turtle","622"," ","<p><strong>TEST BLOCK 5 FINISHED</strong></p><p>Press any key to continue.</p>","","",""
"","","","","","html-keyboard-response","145","2.1.0","202935","pkhfs51f49x","easy","turtle","null","null","<div style=""font-size:60px;"">+</div>","","",""
"","","","","","html-keyboard-response","146","2.1.0","203437","pkhfs51f49x","easy","turtle","null","null","<div style=""font-size:60px;"">+</div>","","",""
"","","","","","categorize-image","147","2.1.0","206407","pkhfs51f49x","easy","turtle","967","a","stimuli/experiment1a/high_A_000.png","high","A","true"
"","","","","","html-keyboard-response","148","2.1.0","206910","pkhfs51f49x","easy","turtle","null","null","<div style=""font-size:60px;"">+</div>","","",""
"","","","","","html-keyboard-response","149","2.1.0","207411","pkhfs51f49x","easy","turtle","null","null","<div style=""font-size:60px;"">+</div>","","",""
"","","","","","categorize-image","150","2.1.0","210325","pkhfs51f49x","easy","turtle","911","b","stimuli/experiment1a/high_B_111.png","high","B","true"
"","","","","","html-keyboard-response","151","2.1.0","210827","pkhfs51f49x","easy","turtle","null","null","<div style=""font-size:60px;"">+</div>","","",""
"","","","","","html-keyboard-response","152","2.1.0","211329","pkhfs51f49x","easy","turtle","null","null","<div style=""font-size:60px;"">+</div>","","",""
"","","","","","categorize-image","153","2.1.0","214787","pkhfs51f49x","easy","turtle","1456","a","stimuli/experiment1a/high_A_010.png","high","A","true"
"","","","","","html-keyboard-response","154","2.1.0","215290","pkhfs51f49x","easy","turtle","null","null","<div style=""font-size:60px;"">+</div>","","",""
"","","","","","html-keyboard-response","155","2.1.0","215792","pkhfs51f49x","easy","turtle","null","null","<div style=""font-size:60px;"">+</div>","","",""
"","","","","","categorize-image","156","2.1.0","218833","pkhfs51f49x","easy","turtle","1038","b","stimuli/experiment1a/high_B_110.png","high","B","true"
"","","","","","html-keyboard-response","157","2.1.0","219336","pkhfs51f49x","easy","turtle","null","null","<div style=""font-size:60px;"">+</div>","","",""
"","","","","","html-keyboard-response","158","2.1.0","219837","pkhfs51f49x","easy","turtle","null","null","<div style=""font-size:60px;"">+</div>","","",""
"","","","","","categorize-image","159","2.1.0","222584","pkhfs51f49x","easy","turtle","744","a","stimuli/experiment1a/high_A_000.png","high","A","true"
"","","","","","html-keyboard-response","160","2.1.0","223086","pkhfs51f49x","easy","turtle","null","null","<div style=""font-size:60px;"">+</div>","","",""
"","","","","","html-keyboard-response","161","2.1.0","223588","pkhfs51f49x","easy","turtle","null","null","<div style=""font-size:60px;"">+</div>","","",""
"","","","","","categorize-image","162","2.1.0","226143","pkhfs51f49x","easy","turtle","553","b","stimuli/experiment1a/high_B_111.png","high","B","true"
"","","","","","html-keyboard-response","163","2.1.0","226646","pkhfs51f49x","easy","turtle","null","null","<div style=""font-size:60px;"">+</div>","","",""
"","","","","","html-keyboard-response","164","2.1.0","227147","pkhfs51f49x","easy","turtle","null","null","<div style=""font-size:60px;"">+</div>","","",""
"","","","","","categorize-image","165","2.1.0","229980","pkhfs51f49x","easy","turtle","829","a","stimuli/experiment1a/high_A_001.png","high","A","true"
"","","","","","html-keyboard-response","166","2.1.0","230482","pkhfs51f49x","easy","turtle","null","null","<div style=""font-size:60px;"">+</div>","","",""
"","","","","","html-keyboard-response","167","2.1.0","230984","pkhfs51f49x","easy","turtle","null","null","<div style=""font-size:60px;"">+</div>","","",""
"","","","","","categorize-image","168","2.1.0","233954","pkhfs51f49x","easy","turtle","968","b","stimuli/experiment1a/high_B_101.png","high","B","true"
"","","","","","image-keyboard-response","169","null","235453","pkhfs51f49x","easy","turtle","1497","q","stimuli/experiment_check.webp","","",""
"","","","","","html-keyboard-response","170","2.1.0","236574","pkhfs51f49x","easy","turtle","1120"," ","<p>Fluffy blesses you. Good job!</p><p>Press any key to continue.</p>","","",""
"","","","","","html-keyboard-response","171","2.1.0","237456","pkhfs51f49x","easy","turtle","881"," ","<p><strong>TEST BLOCK 6 FINISHED</strong></p><p>Press any key to continue.</p>","","",""
"","","","","","survey-text","172","2.1.0","255485","pkhfs51f49x","easy","turtle","18023","{""Language"":""Yes"",""Art_background"":""Yes"",""Strategy"":""Warm/cool (except red)""}","","","",""
"","","","","","survey-text","173","2.1.0","273748","pkhfs51f49x","easy","turtle","18260","{""Issues"":""no"",""Why_experiment"":""rule learning/vis processing"",""Extra_info"":""no""}","","","",""
