"success","timeout","failed_images","failed_audio","failed_video","trial_type","trial_index","plugin_version","time_elapsed","random_id","condition","participant","rt","response","stimulus","nameability","correct_category","correct"
"true","false","[]","[]","[]","preload","0","2.1.0","289","pkv6dmb4hyc","easy2","cub","","","","","",""
"true","","","","","fullscreen","1","2.1.0","3503","pkv6dmb4hyc","easy2","cub","2209","","","","",""
"","","","","","survey-text","2","2.1.0","6531","pkv6dmb4hyc","easy2","cub","3021","{""participant_id"":""cub""}","","","",""
"","","","","","html-keyboard-response","3","2.1.0","30892","pkv6dmb4hyc","easy2","cub","24359"," ","
     <p> Welcome to the experiment! </p>

     <p> In this experiment, you will see a series of images. </p>
     <p> Your task is to categorize each image into one of two categories (A and B) as quickly and accurately as possible. </p>
     <p> You will receive feedback after each response. If you get the category wrong, you will be asked to choose the category again</p>
   ","","",""
"","","","","","html-keyboard-response","4","2.1.0","31394","pkv6dmb4hyc","easy2","cub","null","null","<div style=""font-size:60px;"">+</div>","","",""
"","","","","","html-keyboard-response","5","2.1.0","31898","pkv6dmb4hyc","easy2","cub","null","null","<div style=""font-size:60px;"">+</div>","","",""
"","","","","","categorize-image","6","2.1.0","42256","pkv6dmb4hyc","easy2","cub","8351","a","stimuli/experiment1a/high_B_111.png","high","A","true"
"","","","","","html-keyboard-response","7","2.1.0","42762","pkv6dmb4hyc","easy2","cub","null","null","<div style=""font-size:60px;"">+</div>","","",""
"","","","","","html-keyboard-response","8","2.1.0","43265","pkv6dmb4hyc","easy2","cub","null","null","<div style=""font-size:60px;"">+</div>","","",""
"","","","","","categorize-image","9","2.1.0","50901","pkv6dmb4hyc","easy2","cub","5630","a","stimuli/experiment1a/high_B_101.png","high","A","true"
"","","","","","html-keyboard-response","10","2.1.0","51404","pkv6dmb4hyc","easy2","cub","null","null","<div style=""font-size:60px;"">+</div>","","",""
"","","","","","html-keyboard-response","11","2.1.0","51907","pkv6dmb4hyc","easy2","cub","null","null","<div style=""font-size:60px;"">+</div>","","",""
"","","","","","categorize-image","12","2.1.0","56431","pkv6dmb4hyc","easy2","cub","2518","a","stimuli/experiment1a/high_A_010.png","high","B","false"
"","","","","","html-keyboard-response","13","2.1.0","56934","pkv6dmb4hyc","easy2","cub","null","null","<div style=""font-size:60px;"">+</div>","","",""
"","","","","","categorize-image","14","2.1.0","63936","pkv6dmb4hyc","easy2","cub","4998","b","stimuli/experiment1a/high_A_010.png","high","B","true"
"","","","","","html-keyboard-response","15","2.1.0","64440","pkv6dmb4hyc","easy2","cub","null","null","<div style=""font-size:60px;"">+</div>","","",""
"","","","","","html-keyboard-response","16","2.1.0","64944","pkv6dmb4hyc","easy2","cub","null","null","<div style=""font-size:60px;"">+</div>","","",""
"","","","","","categorize-image","17","2.1.0","68642","pkv6dmb4hyc","easy2","cub","1694","a","stimuli/experiment1a/high_B_110.png","high","A","true"
"","","","","","html-keyboard-response","18","2.1.0","69144","pkv6dmb4hyc","easy2","cub","null","null","<div style=""font-size:60px;"">+</div>","","",""
"","","","","","html-keyboard-response","19","2.1.0","69647","pkv6dmb4hyc","easy2","cub","null","null","<div style=""font-size:60px;"">+</div>","","",""
"","","","","","categorize-image","20","2.1.0","76194","pkv6dmb4hyc","easy2","cub","4543","b","stimuli/experiment1a/high_A_000.png","high","B","true"
"","","","","","html-keyboard-response","21","2.1.0","76698","pkv6dmb4hyc","easy2","cub","null","null","<div style=""font-size:60px;"">+</div>","","",""
"","","","","","html-keyboard-response","22","2.1.0","77201","pkv6dmb4hyc","easy2","cub","null","null","<div style=""font-size:60px;"">+</div>","","",""
"","","","","","categorize-image","23","2.1.0","92243","pkv6dmb4hyc","easy2","cub","13039","b","stimuli/experiment1a/high_A_001.png","high","B","true"
"","","","","","html-keyboard-response","24","2.1.0","92746","pkv6dmb4hyc","easy2","cub","null","null","<div style=""font-size:60px;"">+</div>","","",""
"","","","","","html-keyboard-response","25","2.1.0","93249","pkv6dmb4hyc","easy2","cub","null","null","<div style=""font-size:60px;"">+</div>","","",""
"","","","","","categorize-image","26","2.1.0","96899","pkv6dmb4hyc","easy2","cub","1645","b","stimuli/experiment1a/high_B_111.png","high","A","false"
"","","","","","html-keyboard-response","27","2.1.0","97402","pkv6dmb4hyc","easy2","cub","null","null","<div style=""font-size:60px;"">+</div>","","",""
"","","","","","categorize-image","28","2.1.0","101620","pkv6dmb4hyc","easy2","cub","2213","a","stimuli/experiment1a/high_B_111.png","high","A","true"
"","","","","","html-keyboard-response","29","2.1.0","102123","pkv6dmb4hyc","easy2","cub","null","null","<div style=""font-size:60px;"">+</div>","","",""
"","","","","","html-keyboard-response","30","2.1.0","102625","pkv6dmb4hyc","easy2","cub","null","null","<div style=""font-size:60px;"">+</div>","","",""
"","","","","","categorize-image","31","2.1.0","108462","pkv6dmb4hyc","easy2","cub","3831","b","stimuli/experiment1a/high_A_000.png","high","B","true"
"","","","","","image-keyboard-response","32","null","112983","pkv6dmb4hyc","easy2","cub","4515","q","stimuli/experiment_check.webp","","",""
"","","","","","html-keyboard-response","33","2.1.0","114986","pkv6dmb4hyc","easy2","cub","null","null","<p>Fluffy blesses you. Good job!</p><p>Press any key to continue.</p>","","",""
"","","","","","html-keyboard-response","34","2.1.0","118883","pkv6dmb4hyc","easy2","cub","3896"," ","<p><strong>TEST BLOCK 1 FINISHED</strong></p><p>Press any key to continue.</p>","","",""
"","","","","","html-keyboard-response","35","2.1.0","119386","pkv6dmb4hyc","easy2","cub","null","null","<div style=""font-size:60px;"">+</div>","","",""
"","","","","","html-keyboard-response","36","2.1.0","119888","pkv6dmb4hyc","easy2","cub","null","null","<div style=""font-size:60px;"">+</div>","","",""
"","","","","","categorize-image","37","2.1.0","128307","pkv6dmb4hyc","easy2","cub","6414","b","stimuli/experiment1a/high_A_000.png","high","B","true"
"","","","","","html-keyboard-response","38","2.1.0","128810","pkv6dmb4hyc","easy2","cub","null","null","<div style=""font-size:60px;"">+</div>","","",""
"","","","","","html-keyboard-response","39","2.1.0","129313","pkv6dmb4hyc","easy2","cub","null","null","<div style=""font-size:60px;"">+</div>","","",""
"","","","","","categorize-image","40","2.1.0","132570","pkv6dmb4hyc","easy2","cub","1253","a","stimuli/experiment1a/high_B_110.png","high","A","true"
"","","","","","html-keyboard-response","41","2.1.0","133073","pkv6dmb4hyc","easy2","cub","null","null","<div style=""font-size:60px;"">+</div>","","",""
"","","","","","html-keyboard-response","42","2.1.0","133578","pkv6dmb4hyc","easy2","cub","null","null","<div style=""font-size:60px;"">+</div>","","",""
"","","","","","categorize-image","43","2.1.0","137199","pkv6dmb4hyc","easy2","cub","1617","b","stimuli/experiment1a/high_B_101.png","high","A","false"
"","","","","","html-keyboard-response","44","2.1.0","137702","pkv6dmb4hyc","easy2","cub","null","null","<div style=""font-size:60px;"">+</div>","","",""
"","","","","","categorize-image","45","2.1.0","140679","pkv6dmb4hyc","easy2","cub","973","a","stimuli/experiment1a/high_B_101.png","high","A","true"
"","","","","","html-keyboard-response","46","2.1.0","141181","pkv6dmb4hyc","easy2","cub","null","null","<div style=""font-size:60px;"">+</div>","","",""
"","","","","","html-keyboard-response","47","2.1.0","141682","pkv6dmb4hyc","easy2","cub","null","null","<div style=""font-size:60px;"">+</div>","","",""
"","","","","","categorize-image","48","2.1.0","145248","pkv6dmb4hyc","easy2","cub","1560","b","stimuli/experiment1a/high_A_000.png","high","B","true"
"","","","","","html-keyboard-response","49","2.1.0","145752","pkv6dmb4hyc","easy2","cub","null","null","<div style=""font-size:60px;"">+</div>","","",""
"","","","","","html-keyboard-response","50","2.1.0","146254","pkv6dmb4hyc","easy2","cub","null","null","<div style=""font-size:60px;"">+</div>","","",""
"","","","","","categorize-image","51","2.1.0","149733","pkv6dmb4hyc","easy2","cub","1475","a","stimuli/experiment1a/high_B_111.png","high","A","true"
"","","","","","html-keyboard-response","52","2.1.0","150237","pkv6dmb4hyc","easy2","cub","null","null","<div style=""font-size:60px;"">+</div>","","",""
"","","","","","html-keyboard-response","53","2.1.0","150740","pkv6dmb4hyc","easy2","cub","null","null","<div style=""font-size:60px;"">+</div>","","",""
"","","","","","categorize-image","54","2.1.0","155545","pkv6dmb4hyc","easy2","cub","2802","a","stimuli/experiment1a/high_A_001.png","high","B","false"
"","","","","","html-keyboard-response","55","2.1.0","156047","pkv6dmb4hyc","easy2","cub","null","null","<div style=""font-size:60px;"">+</div>","","",""
"","","","","","categorize-image","56","2.1.0","159071","pkv6dmb4hyc","easy2","cub","1018","b","stimuli/experiment1a/high_A_001.png","high","B","true"
"","","","","","html-keyboard-response","57","2.1.0","159574","pkv6dmb4hyc","easy2","cub","null","null","<div style=""font-size:60px;"">+</div>","","",""
"","","","","","html-keyboard-response","58","2.1.0","160076","pkv6dmb4hyc","easy2","cub","null","null","<div style=""font-size:60px;"">+</div>","","",""
"","","","","","categorize-image","59","2.1.0","168921","pkv6dmb4hyc","easy2","cub","6841","a","stimuli/experiment1a/high_B_111.png","high","A","true"
"","","","","","html-keyboard-response","60","2.1.0","169425","pkv6dmb4hyc","easy2","cub","null","null","<div style=""font-size:60px;"">+</div>","","",""
"","","","","","html-keyboard-response","61","2.1.0","169929","pkv6dmb4hyc","easy2","cub","null","null","<div style=""font-size:60px;"">+</div>","","",""
"","","","","","categorize-image","62","2.1.0","175221","pkv6dmb4hyc","easy2","cub","3287","a","stimuli/experiment1a/high_A_010.png","high","B","false"
"","","","","","html-keyboard-response","63","2.1.0","175724","pkv6dmb4hyc","easy2","cub","null","null","<div style=""font-size:60px;"">+</div>","","",""
"","","","","","categorize-image","64","2.1.0","178788","pkv6dmb4hyc","easy2","cub","1059","b","stimuli/experiment1a/high_A_010.png","high","B","true"
"","","","","","image-keyboard-response","65","null","180914","pkv6dmb4hyc","easy2","cub","2122","q","stimuli/experiment_check.webp","","",""
"","","","","","html-keyboard-response","66","2.1.0","182916","pkv6dmb4hyc","easy2","cub","null","null","<p>Fluffy blesses you. Good job!</p><p>Press any key to continue.</p>","","",""
"","","","","","html-keyboard-response","67","2.1.0","184698","pkv6dmb4hyc","easy2","cub","1781","b","<p><strong>TEST BLOCK 2 FINISHED</strong></p><p>Press any key to continue.</p>","","",""
"","","","","","html-keyboard-response","68","2.1.0","185200","pkv6dmb4hyc","easy2","cub","null","null","<div style=""font-size:60px;"">+</div>","","",""
"","","","","","html-keyboard-response","69","2.1.0","185703","pkv6dmb4hyc","easy2","cub","null","null","<div style=""font-size:60px;"">+</div>","","",""
"","","","","","categorize-image","70","2.1.0","188642","pkv6dmb4hyc","easy2","cub","935","b","stimuli/experiment1a/high_B_101.png","high","A","false"
"","","","","","html-keyboard-response","71","2.1.0","189146","pkv6dmb4hyc","easy2","cub","null","null","<div style=""font-size:60px;"">+</div>","","",""
"","","","","","categorize-image","72","2.1.0","191845","pkv6dmb4hyc","easy2","cub","695","a","stimuli/experiment1a/high_B_101.png","high","A","true"
"","","","","","html-keyboard-response","73","2.1.0","192349","pkv6dmb4hyc","easy2","cub","null","null","<div style=""font-size:60px;"">+</div>","","",""
"","","","","","html-keyboard-response","74","2.1.0","192853","pkv6dmb4hyc","easy2","cub","null","null","<div style=""font-size:60px;"">+</div>","","",""
"","","","","","categorize-image","75","2.1.0","195866","pkv6dmb4hyc","easy2","cub","1009","a","stimuli/experiment1a/high_B_111.png","high","A","true"
"","","","","","html-keyboard-response","76","2.1.0","196370","pkv6dmb4hyc","easy2","cub","null","null","<div style=""font-size:60px;"">+</div>","","",""
"","","","","","html-keyboard-response","77","2.1.0","196873","pkv6dmb4hyc","easy2","cub","null","null","<div style=""font-size:60px;"">+</div>","","",""
"","","","","","categorize-image","78","2.1.0","199443","pkv6dmb4hyc","easy2","cub","566","a","stimuli/experiment1a/high_B_111.png","high","A","true"
"","","","","","html-keyboard-response","79","2.1.0","199948","pkv6dmb4hyc","easy2","cub","null","null","<div style=""font-size:60px;"">+</div>","","",""
"","","","","","html-keyboard-response","80","2.1.0","200451","pkv6dmb4hyc","easy2","cub","null","null","<div style=""font-size:60px;"">+</div>","","",""
"","","","","","categorize-image","81","2.1.0","203062","pkv6dmb4hyc","easy2","cub","606","b","stimuli/experiment1a/high_A_000.png","high","B","true"
"","","","","","html-keyboard-response","82","2.1.0","203566","pkv6dmb4hyc","easy2","cub","null","null","<div style=""font-size:60px;"">+</div>","","",""
"","","","","","html-keyboard-response","83","2.1.0","204069","pkv6dmb4hyc","easy2","cub","null","null","<div style=""font-size:60px;"">+</div>","","",""
"","","","","","categorize-image","84","2.1.0","206645","pkv6dmb4hyc","easy2","cub","571","b","stimuli/experiment1a/high_B_110.png","high","A","false"
"","","","","","html-keyboard-response","85","2.1.0","207146","pkv6dmb4hyc","easy2","cub","null","null","<div style=""font-size:60px;"">+</div>","","",""
"","","","","","categorize-image","86","2.1.0","211028","pkv6dmb4hyc","easy2","cub","1878","a","stimuli/experiment1a/high_B_110.png","high","A","true"
"","","","","","html-keyboard-response","87","2.1.0","211532","pkv6dmb4hyc","easy2","cub","null","null","<div style=""font-size:60px;"">+</div>","","",""
"","","","","","html-keyboard-response","88","2.1.0","212034","pkv6dmb4hyc","easy2","cub","null","null","<div style=""font-size:60px;"">+</div>","","",""
"","","","","","categorize-image","89","2.1.0","221382","pkv6dmb4hyc","easy2","cub","7344","b","stimuli/experiment1a/high_A_000.png","high","B","true"
"","","","","","html-keyboard-response","90","2.1.0","221887","pkv6dmb4hyc","easy2","cub","null","null","<div style=""font-size:60px;"">+</div>","","",""
"","","","","","html-keyboard-response","91","2.1.0","222390","pkv6dmb4hyc","easy2","cub","null","null","<div style=""font-size:60px;"">+</div>","","",""
"","","","","","categorize-image","92","2.1.0","227453","pkv6dmb4hyc","easy2","cub","3058","b","stimuli/experiment1a/high_A_010.png","high","B","true"
"","","","","","html-keyboard-response","93","2.1.0","227956","pkv6dmb4hyc","easy2","cub","null","null","<div style=""font-size:60px;"">+</div>","","",""
"","","","","","html-keyboard-response","94","2.1.0","228459","pkv6dmb4hyc","easy2","cub","null","null","<div style=""font-size:60px;"">+</div>","","",""
"","","","","","categorize-image","95","2.1.0","231651","pkv6dmb4hyc","easy2","cub","1188","a","stimuli/experiment1a/high_A_001.png","high","B","false"
"","","","","","html-keyboard-response","96","2.1.0","232154","pkv6dmb4hyc","easy2","cub","null","null","<div style=""font-size:60px;"">+</div>","","",""
"","","","","","categorize-image","97","2.1.0","235164","pkv6dmb4hyc","easy2","cub","1006","b","stimuli/experiment1a/high_A_001.png","high","B","true"
"","","","","","image-keyboard-response","98","null","236835","pkv6dmb4hyc","easy2","cub","1667","q","stimuli/experiment_check.webp","","",""
"","","","","","html-keyboard-response","99","2.1.0","238838","pkv6dmb4hyc","easy2","cub","null","null","<p>Fluffy blesses you. Good job!</p><p>Press any key to continue.</p>","","",""
"","","","","","html-keyboard-response","100","2.1.0","241447","pkv6dmb4hyc","easy2","cub","2608"," ","<p><strong>TEST BLOCK 3 FINISHED</strong></p><p>Press any key to continue.</p>","","",""
"","","","","","html-keyboard-response","101","2.1.0","241949","pkv6dmb4hyc","easy2","cub","null","null","<div style=""font-size:60px;"">+</div>","","",""
"","","","","","html-keyboard-response","102","2.1.0","242451","pkv6dmb4hyc","easy2","cub","null","null","<div style=""font-size:60px;"">+</div>","","",""
"","","","","","categorize-image","103","2.1.0","247203","pkv6dmb4hyc","easy2","cub","2748","b","stimuli/experiment1a/high_B_110.png","high","A","false"
"","","","","","html-keyboard-response","104","2.1.0","247707","pkv6dmb4hyc","easy2","cub","null","null","<div style=""font-size:60px;"">+</div>","","",""
"","","","","","categorize-image","105","2.1.0","250323","pkv6dmb4hyc","easy2","cub","612","a","stimuli/experiment1a/high_B_110.png","high","A","true"
"","","","","","html-keyboard-response","106","2.1.0","250828","pkv6dmb4hyc","easy2","cub","null","null","<div style=""font-size:60px;"">+</div>","","",""
"","","","","","html-keyboard-response","107","2.1.0","251330","pkv6dmb4hyc","easy2","cub","null","null","<div style=""font-size:60px;"">+</div>","","",""
"","","","","","categorize-image","108","2.1.0","254433","pkv6dmb4hyc","easy2","cub","1098","b","stimuli/experiment1a/high_A_010.png","high","B","true"
"","","","","","html-keyboard-response","109","2.1.0","254937","pkv6dmb4hyc","easy2","cub","null","null","<div style=""font-size:60px;"">+</div>","","",""
"","","","","","html-keyboard-response","110","2.1.0","255439","pkv6dmb4hyc","easy2","cub","null","null","<div style=""font-size:60px;"">+</div>","","",""
"","","","","","categorize-image","111","2.1.0","258604","pkv6dmb4hyc","easy2","cub","1161","a","stimuli/experiment1a/high_A_001.png","high","B","false"
"","","","","","html-keyboard-response","112","2.1.0","259107","pkv6dmb4hyc","easy2","cub","null","null","<div style=""font-size:60px;"">+</div>","","",""
"","","","","","categorize-image","113","2.1.0","261842","pkv6dmb4hyc","easy2","cub","731","b","stimuli/experiment1a/high_A_001.png","high","B","true"
"","","","","","html-keyboard-response","114","2.1.0","262346","pkv6dmb4hyc","easy2","cub","null","null","<div style=""font-size:60px;"">+</div>","","",""
"","","","","","html-keyboard-response","115","2.1.0","262848","pkv6dmb4hyc","easy2","cub","null","null","<div style=""font-size:60px;"">+</div>","","",""
"","","","","","categorize-image","116","2.1.0","268051","pkv6dmb4hyc","easy2","cub","3198","a","stimuli/experiment1a/high_B_101.png","high","A","true"
"","","","","","html-keyboard-response","117","2.1.0","268554","pkv6dmb4hyc","easy2","cub","null","null","<div style=""font-size:60px;"">+</div>","","",""
"","","","","","html-keyboard-response","118","2.1.0","269058","pkv6dmb4hyc","easy2","cub","null","null","<div style=""font-size:60px;"">+</div>","","",""
"","","","","","categorize-image","119","2.1.0","273138","pkv6dmb4hyc","easy2","cub","2077","b","stimuli/experiment1a/high_B_111.png","high","A","false"
"","","","","","html-keyboard-response","120","2.1.0","273641","pkv6dmb4hyc","easy2","cub","null","null","<div style=""font-size:60px;"">+</div>","","",""
"","","","","","categorize-image","121","2.1.0","276813","pkv6dmb4hyc","easy2","cub","1169","a","stimuli/experiment1a/high_B_111.png","high","A","true"
"","","","","","html-keyboard-response","122","2.1.0","277317","pkv6dmb4hyc","easy2","cub","null","null","<div style=""font-size:60px;"">+</div>","","",""
"","","","","","html-keyboard-response","123","2.1.0","277820","pkv6dmb4hyc","easy2","cub","null","null","<div style=""font-size:60px;"">+</div>","","",""
"","","","","","categorize-image","124","2.1.0","282043","pkv6dmb4hyc","easy2","cub","2218","b","stimuli/experiment1a/high_A_000.png","high","B","true"
"","","","","","html-keyboard-response","125","2.1.0","282546","pkv6dmb4hyc","easy2","cub","null","null","<div style=""font-size:60px;"">+</div>","","",""
"","","","","","html-keyboard-response","126","2.1.0","283049","pkv6dmb4hyc","easy2","cub","null","null","<div style=""font-size:60px;"">+</div>","","",""
"","","","","","categorize-image","127","2.1.0","285894","pkv6dmb4hyc","easy2","cub","841","b","stimuli/experiment1a/high_A_000.png","high","B","true"
"","","","","","html-keyboard-response","128","2.1.0","286398","pkv6dmb4hyc","easy2","cub","null","null","<div style=""font-size:60px;"">+</div>","","",""
"","","","","","html-keyboard-response","129","2.1.0","286901","pkv6dmb4hyc","easy2","cub","null","null","<div style=""font-size:60px;"">+</div>","","",""
"","","","","","categorize-image","130","2.1.0","289925","pkv6dmb4hyc","easy2","cub","1020","a","stimuli/experiment1a/high_B_111.png","high","A","true"
"","","","","","image-keyboard-response","131","null","291235","pkv6dmb4hyc","easy2","cub","1304","q","stimuli/experiment_check.webp","","",""
"","","","","","html-keyboard-response","132","2.1.0","293238","pkv6dmb4hyc","easy2","cub","null","null","<p>Fluffy blesses you. Good job!</p><p>Press any key to continue.</p>","","",""
"","","","","","html-keyboard-response","133","2.1.0","295983","pkv6dmb4hyc","easy2","cub","2744"," ","<p><strong>TEST BLOCK 4 FINISHED</strong></p><p>Press any key to continue.</p>","","",""
"","","","","","html-keyboard-response","134","2.1.0","296485","pkv6dmb4hyc","easy2","cub","null","null","<div style=""font-size:60px;"">+</div>","","",""
"","","","","","html-keyboard-response","135","2.1.0","296989","pkv6dmb4hyc","easy2","cub","null","null","<div style=""font-size:60px;"">+</div>","","",""
"","","","","","categorize-image","136","2.1.0","300358","pkv6dmb4hyc","easy2","cub","1364","b","stimuli/experiment1a/high_A_001.png","high","B","true"
"","","","","","html-keyboard-response","137","2.1.0","300862","pkv6dmb4hyc","easy2","cub","null","null","<div style=""font-size:60px;"">+</div>","","",""
"","","","","","html-keyboard-response","138","2.1.0","301364","pkv6dmb4hyc","easy2","cub","null","null","<div style=""font-size:60px;"">+</div>","","",""
"","","","","","categorize-image","139","2.1.0","304049","pkv6dmb4hyc","easy2","cub","680","a","stimuli/experiment1a/high_B_111.png","high","A","true"
"","","","","","html-keyboard-response","140","2.1.0","304553","pkv6dmb4hyc","easy2","cub","null","null","<div style=""font-size:60px;"">+</div>","","",""
"","","","","","html-keyboard-response","141","2.1.0","305055","pkv6dmb4hyc","easy2","cub","null","null","<div style=""font-size:60px;"">+</div>","","",""
"","","","","","categorize-image","142","2.1.0","309207","pkv6dmb4hyc","easy2","cub","2148","b","stimuli/experiment1a/high_A_010.png","high","B","true"
"","","","","","html-keyboard-response","143","2.1.0","309710","pkv6dmb4hyc","easy2","cub","null","null","<div style=""font-size:60px;"">+</div>","","",""
"","","","","","html-keyboard-response","144","2.1.0","310213","pkv6dmb4hyc","easy2","cub","null","null","<div style=""font-size:60px;"">+</div>","","",""
"","","","","","categorize-image","145","2.1.0","313306","pkv6dmb4hyc","easy2","cub","1089","b","stimuli/experiment1a/high_A_000.png","high","B","true"
"","","","","","html-keyboard-response","146","2.1.0","313810","pkv6dmb4hyc","easy2","cub","null","null","<div style=""font-size:60px;"">+</div>","","",""
"","","","","","html-keyboard-response","147","2.1.0","314312","pkv6dmb4hyc","easy2","cub","null","null","<div style=""font-size:60px;"">+</div>","","",""
"","","","","","categorize-image","148","2.1.0","316937","pkv6dmb4hyc","easy2","cub","621","b","stimuli/experiment1a/high_A_000.png","high","B","true"
"","","","","","html-keyboard-response","149","2.1.0","317441","pkv6dmb4hyc","easy2","cub","null","null","<div style=""font-size:60px;"">+</div>","","",""
"","","","","","html-keyboard-response","150","2.1.0","317944","pkv6dmb4hyc","easy2","cub","null","null","<div style=""font-size:60px;"">+</div>","","",""
"","","","","","categorize-image","151","2.1.0","320880","pkv6dmb4hyc","easy2","cub","930","a","stimuli/experiment1a/high_B_111.png","high","A","true"
"","","","","","html-keyboard-response","152","2.1.0","321382","pkv6dmb4hyc","easy2","cub","null","null","<div style=""font-size:60px;"">+</div>","","",""
"","","","","","html-keyboard-response","153","2.1.0","321885","pkv6dmb4hyc","easy2","cub","null","null","<div style=""font-size:60px;"">+</div>","","",""
"","","","","","categorize-image","154","2.1.0","325986","pkv6dmb4hyc","easy2","cub","2098","a","stimuli/experiment1a/high_B_101.png","high","A","true"
"","","","","","html-keyboard-response","155","2.1.0","326490","pkv6dmb4hyc","easy2","cub","null","null","<div style=""font-size:60px;"">+</div>","","",""
"","","","","","html-keyboard-response","156","2.1.0","326993","pkv6dmb4hyc","easy2","cub","null","null","<div style=""font-size:60px;"">+</div>","","",""
"","","","","","categorize-image","157","2.1.0","330048","pkv6dmb4hyc","easy2","cub","1052","a","stimuli/experiment1a/high_B_110.png","high","A","true"
"","","","","","image-keyboard-response","158","null","331177","pkv6dmb4hyc","easy2","cub","1126","q","stimuli/experiment_check.webp","","",""
"","","","","","html-keyboard-response","159","2.1.0","333180","pkv6dmb4hyc","easy2","cub","null","null","<p>Fluffy blesses you. Good job!</p><p>Press any key to continue.</p>","","",""
"","","","","","html-keyboard-response","160","2.1.0","333970","pkv6dmb4hyc","easy2","cub","789","b","<p><strong>TEST BLOCK 5 FINISHED</strong></p><p>Press any key to continue.</p>","","",""
"","","","","","html-keyboard-response","161","2.1.0","334473","pkv6dmb4hyc","easy2","cub","null","null","<div style=""font-size:60px;"">+</div>","","",""
"","","","","","html-keyboard-response","162","2.1.0","334976","pkv6dmb4hyc","easy2","cub","null","null","<div style=""font-size:60px;"">+</div>","","",""
"","","","","","categorize-image","163","2.1.0","338300","pkv6dmb4hyc","easy2","cub","1320","a","stimuli/experiment1a/high_B_110.png","high","A","true"
"","","","","","html-keyboard-response","164","2.1.0","338803","pkv6dmb4hyc","easy2","cub","null","null","<div style=""font-size:60px;"">+</div>","","",""
"","","","","","html-keyboard-response","165","2.1.0","339306","pkv6dmb4hyc","easy2","cub","null","null","<div style=""font-size:60px;"">+</div>","","",""
"","","","","","categorize-image","166","2.1.0","342021","pkv6dmb4hyc","easy2","cub","711","a","stimuli/experiment1a/high_B_111.png","high","A","true"
"","","","","","html-keyboard-response","167","2.1.0","342525","pkv6dmb4hyc","easy2","cub","null","null","<div style=""font-size:60px;"">+</div>","","",""
"","","","","","html-keyboard-response","168","2.1.0","343027","pkv6dmb4hyc","easy2","cub","null","null","<div style=""font-size:60px;"">+</div>","","",""
"","","","","","categorize-image","169","2.1.0","346057","pkv6dmb4hyc","easy2","cub","1025","b","stimuli/experiment1a/high_A_001.png","high","B","true"
"","","","","","html-keyboard-response","170","2.1.0","346562","pkv6dmb4hyc","easy2","cub","null","null","<div style=""font-size:60px;"">+</div>","","",""
"","","","","","html-keyboard-response","171","2.1.0","347065","pkv6dmb4hyc","easy2","cub","null","null","<div style=""font-size:60px;"">+</div>","","",""
"","","","","","categorize-image","172","2.1.0","349656","pkv6dmb4hyc","easy2","cub","585","b","stimuli/experiment1a/high_A_000.png","high","B","true"
"","","","","","html-keyboard-response","173","2.1.0","350159","pkv6dmb4hyc","easy2","cub","null","null","<div style=""font-size:60px;"">+</div>","","",""
"","","","","","html-keyboard-response","174","2.1.0","350662","pkv6dmb4hyc","easy2","cub","null","null","<div style=""font-size:60px;"">+</div>","","",""
"","","","","","categorize-image","175","2.1.0","354462","pkv6dmb4hyc","easy2","cub","1795","b","stimuli/experiment1a/high_A_010.png","high","B","true"
"","","","","","html-keyboard-response","176","2.1.0","354967","pkv6dmb4hyc","easy2","cub","null","null","<div style=""font-size:60px;"">+</div>","","",""
"","","","","","html-keyboard-response","177","2.1.0","355470","pkv6dmb4hyc","easy2","cub","null","null","<div style=""font-size:60px;"">+</div>","","",""
"","","","","","categorize-image","178","2.1.0","358318","pkv6dmb4hyc","easy2","cub","842","a","stimuli/experiment1a/high_B_111.png","high","A","true"
"","","","","","html-keyboard-response","179","2.1.0","358822","pkv6dmb4hyc","easy2","cub","null","null","<div style=""font-size:60px;"">+</div>","","",""
"","","","","","html-keyboard-response","180","2.1.0","359324","pkv6dmb4hyc","easy2","cub","null","null","<div style=""font-size:60px;"">+</div>","","",""
"","","","","","categorize-image","181","2.1.0","362601","pkv6dmb4hyc","easy2","cub","1274","b","stimuli/experiment1a/high_A_000.png","high","B","true"
"","","","","","html-keyboard-response","182","2.1.0","363104","pkv6dmb4hyc","easy2","cub","null","null","<div style=""font-size:60px;"">+</div>","","",""
"","","","","","html-keyboard-response","183","2.1.0","363606","pkv6dmb4hyc","easy2","cub","null","null","<div style=""font-size:60px;"">+</div>","","",""
"","","","","","categorize-image","184","2.1.0","367130","pkv6dmb4hyc","easy2","cub","1519","a","stimuli/experiment1a/high_B_101.png","high","A","true"
"","","","","","image-keyboard-response","185","null","368145","pkv6dmb4hyc","easy2","cub","1012","q","stimuli/experiment_check.webp","","",""
"","","","","","html-keyboard-response","186","2.1.0","370058","pkv6dmb4hyc","easy2","cub","1911","b","<p>Fluffy blesses you. Good job!</p><p>Press any key to continue.</p>","","",""
"","","","","","html-keyboard-response","187","2.1.0","370745","pkv6dmb4hyc","easy2","cub","686","b","<p><strong>TEST BLOCK 6 FINISHED</strong></p><p>Press any key to continue.</p>","","",""
"","","","","","survey-text","188","2.1.0","435344","pkv6dmb4hyc","easy2","cub","64583","{""Language"":""No"",""Art_background"":""watercolor and painting"",""Strategy"":""When it has blue it is B and when it has orange it is A""}","","","",""
"","","","","","survey-text","189","2.1.0","492327","pkv6dmb4hyc","easy2","cub","56978","{""Issues"":""No"",""Why_experiment"":""Figuring what is the categories."",""Extra_info"":""I am curious about what the experiment is about but I guess that is a part of your studying as well.""}","","","",""
