"success","timeout","failed_images","failed_audio","failed_video","trial_type","trial_index","plugin_version","time_elapsed","random_id","condition","participant","rt","response","stimulus","nameability","correct_category","correct"
"true","false","[]","[]","[]","preload","0","2.1.0","107","plt3fbnscud","easy","panda","","","","","",""
"true","","","","","fullscreen","1","2.1.0","7209","plt3fbnscud","easy","panda","6100","","","","",""
"","","","","","survey-text","2","2.1.0","9494","plt3fbnscud","easy","panda","2280","{""participant_id"":""panda""}","","","",""
"","","","","","html-keyboard-response","3","2.1.0","12554","plt3fbnscud","easy","panda","3059"," ","
     <p> Welcome to the experiment! </p>

     <p> In this experiment, you will see a series of images. </p>
     <p> Your task is to categorize each image into one of two categories (A and B) as quickly and accurately as possible. </p>
     <p> You will receive feedback after each response. If you get the category wrong, you will be asked to choose the category again</p>
   ","","",""
"","","","","","html-keyboard-response","4","2.1.0","13056","plt3fbnscud","easy","panda","null","null","<div style=""font-size:60px;"">+</div>","","",""
"","","","","","html-keyboard-response","5","2.1.0","13560","plt3fbnscud","easy","panda","null","null","<div style=""font-size:60px;"">+</div>","","",""
"","","","","","categorize-image","6","2.1.0","18107","plt3fbnscud","easy","panda","2541","a","stimuli/experiment1a/high_A_000.png","high","A","true"
"","","","","","html-keyboard-response","7","2.1.0","18610","plt3fbnscud","easy","panda","null","null","<div style=""font-size:60px;"">+</div>","","",""
"","","","","","html-keyboard-response","8","2.1.0","19113","plt3fbnscud","easy","panda","null","null","<div style=""font-size:60px;"">+</div>","","",""
"","","","","","categorize-image","9","2.1.0","21963","plt3fbnscud","easy","panda","846","b","stimuli/experiment1a/high_B_111.png","high","B","true"
"","","","","","html-keyboard-response","10","2.1.0","22466","plt3fbnscud","easy","panda","null","null","<div style=""font-size:60px;"">+</div>","","",""
"","","","","","html-keyboard-response","11","2.1.0","22969","plt3fbnscud","easy","panda","null","null","<div style=""font-size:60px;"">+</div>","","",""
"","","","","","categorize-image","12","2.1.0","27841","plt3fbnscud","easy","panda","2868","b","stimuli/experiment1a/high_B_101.png","high","B","true"
"","","","","","html-keyboard-response","13","2.1.0","28344","plt3fbnscud","easy","panda","null","null","<div style=""font-size:60px;"">+</div>","","",""
"","","","","","html-keyboard-response","14","2.1.0","28847","plt3fbnscud","easy","panda","null","null","<div style=""font-size:60px;"">+</div>","","",""
"","","","","","categorize-image","15","2.1.0","32297","plt3fbnscud","easy","panda","1447","a","stimuli/experiment1a/high_B_110.png","high","B","false"
"","","","","","html-keyboard-response","16","2.1.0","32800","plt3fbnscud","easy","panda","null","null","<div style=""font-size:60px;"">+</div>","","",""
"","","","","","categorize-image","17","2.1.0","35505","plt3fbnscud","easy","panda","700","b","stimuli/experiment1a/high_B_110.png","high","B","true"
"","","","","","html-keyboard-response","18","2.1.0","36008","plt3fbnscud","easy","panda","null","null","<div style=""font-size:60px;"">+</div>","","",""
"","","","","","html-keyboard-response","19","2.1.0","36510","plt3fbnscud","easy","panda","null","null","<div style=""font-size:60px;"">+</div>","","",""
"","","","","","categorize-image","20","2.1.0","39279","plt3fbnscud","easy","panda","765","b","stimuli/experiment1a/high_B_111.png","high","B","true"
"","","","","","html-keyboard-response","21","2.1.0","39783","plt3fbnscud","easy","panda","null","null","<div style=""font-size:60px;"">+</div>","","",""
"","","","","","html-keyboard-response","22","2.1.0","40284","plt3fbnscud","easy","panda","null","null","<div style=""font-size:60px;"">+</div>","","",""
"","","","","","categorize-image","23","2.1.0","42783","plt3fbnscud","easy","panda","495","a","stimuli/experiment1a/high_A_010.png","high","A","true"
"","","","","","html-keyboard-response","24","2.1.0","43286","plt3fbnscud","easy","panda","null","null","<div style=""font-size:60px;"">+</div>","","",""
"","","","","","html-keyboard-response","25","2.1.0","43789","plt3fbnscud","easy","panda","null","null","<div style=""font-size:60px;"">+</div>","","",""
"","","","","","categorize-image","26","2.1.0","46510","plt3fbnscud","easy","panda","717","b","stimuli/experiment1a/high_A_001.png","high","A","false"
"","","","","","html-keyboard-response","27","2.1.0","47013","plt3fbnscud","easy","panda","null","null","<div style=""font-size:60px;"">+</div>","","",""
"","","","","","categorize-image","28","2.1.0","49759","plt3fbnscud","easy","panda","742","a","stimuli/experiment1a/high_A_001.png","high","A","true"
"","","","","","html-keyboard-response","29","2.1.0","50262","plt3fbnscud","easy","panda","null","null","<div style=""font-size:60px;"">+</div>","","",""
"","","","","","html-keyboard-response","30","2.1.0","50764","plt3fbnscud","easy","panda","null","null","<div style=""font-size:60px;"">+</div>","","",""
"","","","","","categorize-image","31","2.1.0","53441","plt3fbnscud","easy","panda","672","a","stimuli/experiment1a/high_A_000.png","high","A","true"
"","","","","","image-keyboard-response","32","null","54994","plt3fbnscud","easy","panda","1548","q","stimuli/experiment_check.webp","","",""
"","","","","","html-keyboard-response","33","2.1.0","56997","plt3fbnscud","easy","panda","null","null","<p>Fluffy blesses you. Good job!</p><p>Press any key to continue.</p>","","",""
"","","","","","html-keyboard-response","34","2.1.0","58691","plt3fbnscud","easy","panda","1693"," ","<p><strong>TEST BLOCK 1 FINISHED</strong></p><p>Press any key to continue.</p>","","",""
"","","","","","html-keyboard-response","35","2.1.0","59193","plt3fbnscud","easy","panda","null","null","<div style=""font-size:60px;"">+</div>","","",""
"","","","","","html-keyboard-response","36","2.1.0","59695","plt3fbnscud","easy","panda","null","null","<div style=""font-size:60px;"">+</div>","","",""
"","","","","","categorize-image","37","2.1.0","62385","plt3fbnscud","easy","panda","686","b","stimuli/experiment1a/high_B_111.png","high","B","true"
"","","","","","html-keyboard-response","38","2.1.0","62888","plt3fbnscud","easy","panda","null","null","<div style=""font-size:60px;"">+</div>","","",""
"","","","","","html-keyboard-response","39","2.1.0","63391","plt3fbnscud","easy","panda","null","null","<div style=""font-size:60px;"">+</div>","","",""
"","","","","","categorize-image","40","2.1.0","65936","plt3fbnscud","easy","panda","541","b","stimuli/experiment1a/high_B_111.png","high","B","true"
"","","","","","html-keyboard-response","41","2.1.0","66437","plt3fbnscud","easy","panda","null","null","<div style=""font-size:60px;"">+</div>","","",""
"","","","","","html-keyboard-response","42","2.1.0","66940","plt3fbnscud","easy","panda","null","null","<div style=""font-size:60px;"">+</div>","","",""
"","","","","","categorize-image","43","2.1.0","69449","plt3fbnscud","easy","panda","505","a","stimuli/experiment1a/high_A_000.png","high","A","true"
"","","","","","html-keyboard-response","44","2.1.0","69952","plt3fbnscud","easy","panda","null","null","<div style=""font-size:60px;"">+</div>","","",""
"","","","","","html-keyboard-response","45","2.1.0","70454","plt3fbnscud","easy","panda","null","null","<div style=""font-size:60px;"">+</div>","","",""
"","","","","","categorize-image","46","2.1.0","73315","plt3fbnscud","easy","panda","858","b","stimuli/experiment1a/high_B_101.png","high","B","true"
"","","","","","html-keyboard-response","47","2.1.0","73818","plt3fbnscud","easy","panda","null","null","<div style=""font-size:60px;"">+</div>","","",""
"","","","","","html-keyboard-response","48","2.1.0","74320","plt3fbnscud","easy","panda","null","null","<div style=""font-size:60px;"">+</div>","","",""
"","","","","","categorize-image","49","2.1.0","77836","plt3fbnscud","easy","panda","1513","a","stimuli/experiment1a/high_B_110.png","high","B","false"
"","","","","","html-keyboard-response","50","2.1.0","78339","plt3fbnscud","easy","panda","null","null","<div style=""font-size:60px;"">+</div>","","",""
"","","","","","categorize-image","51","2.1.0","81217","plt3fbnscud","easy","panda","875","b","stimuli/experiment1a/high_B_110.png","high","B","true"
"","","","","","html-keyboard-response","52","2.1.0","81720","plt3fbnscud","easy","panda","null","null","<div style=""font-size:60px;"">+</div>","","",""
"","","","","","html-keyboard-response","53","2.1.0","82223","plt3fbnscud","easy","panda","null","null","<div style=""font-size:60px;"">+</div>","","",""
"","","","","","categorize-image","54","2.1.0","84850","plt3fbnscud","easy","panda","623","b","stimuli/experiment1a/high_A_001.png","high","A","false"
"","","","","","html-keyboard-response","55","2.1.0","85353","plt3fbnscud","easy","panda","null","null","<div style=""font-size:60px;"">+</div>","","",""
"","","","","","categorize-image","56","2.1.0","88335","plt3fbnscud","easy","panda","978","a","stimuli/experiment1a/high_A_001.png","high","A","true"
"","","","","","html-keyboard-response","57","2.1.0","88839","plt3fbnscud","easy","panda","null","null","<div style=""font-size:60px;"">+</div>","","",""
"","","","","","html-keyboard-response","58","2.1.0","89340","plt3fbnscud","easy","panda","null","null","<div style=""font-size:60px;"">+</div>","","",""
"","","","","","categorize-image","59","2.1.0","93138","plt3fbnscud","easy","panda","1794","a","stimuli/experiment1a/high_A_010.png","high","A","true"
"","","","","","html-keyboard-response","60","2.1.0","93641","plt3fbnscud","easy","panda","null","null","<div style=""font-size:60px;"">+</div>","","",""
"","","","","","html-keyboard-response","61","2.1.0","94144","plt3fbnscud","easy","panda","null","null","<div style=""font-size:60px;"">+</div>","","",""
"","","","","","categorize-image","62","2.1.0","96919","plt3fbnscud","easy","panda","768","a","stimuli/experiment1a/high_A_000.png","high","A","true"
"","","","","","image-keyboard-response","63","null","98453","plt3fbnscud","easy","panda","1530","q","stimuli/experiment_check.webp","","",""
"","","","","","html-keyboard-response","64","2.1.0","99638","plt3fbnscud","easy","panda","1184","b","<p>Fluffy blesses you. Good job!</p><p>Press any key to continue.</p>","","",""
"","","","","","html-keyboard-response","65","2.1.0","100607","plt3fbnscud","easy","panda","967"," ","<p><strong>TEST BLOCK 2 FINISHED</strong></p><p>Press any key to continue.</p>","","",""
"","","","","","html-keyboard-response","66","2.1.0","101109","plt3fbnscud","easy","panda","null","null","<div style=""font-size:60px;"">+</div>","","",""
"","","","","","html-keyboard-response","67","2.1.0","101611","plt3fbnscud","easy","panda","null","null","<div style=""font-size:60px;"">+</div>","","",""
"","","","","","categorize-image","68","2.1.0","104359","plt3fbnscud","easy","panda","742","b","stimuli/experiment1a/high_B_111.png","high","B","true"
"","","","","","html-keyboard-response","69","2.1.0","104862","plt3fbnscud","easy","panda","null","null","<div style=""font-size:60px;"">+</div>","","",""
"","","","","","html-keyboard-response","70","2.1.0","105364","plt3fbnscud","easy","panda","null","null","<div style=""font-size:60px;"">+</div>","","",""
"","","","","","categorize-image","71","2.1.0","108233","plt3fbnscud","easy","panda","864","a","stimuli/experiment1a/high_A_000.png","high","A","true"
"","","","","","html-keyboard-response","72","2.1.0","108736","plt3fbnscud","easy","panda","null","null","<div style=""font-size:60px;"">+</div>","","",""
"","","","","","html-keyboard-response","73","2.1.0","109239","plt3fbnscud","easy","panda","null","null","<div style=""font-size:60px;"">+</div>","","",""
"","","","","","categorize-image","74","2.1.0","111855","plt3fbnscud","easy","panda","610","b","stimuli/experiment1a/high_B_111.png","high","B","true"
"","","","","","html-keyboard-response","75","2.1.0","112357","plt3fbnscud","easy","panda","null","null","<div style=""font-size:60px;"">+</div>","","",""
"","","","","","html-keyboard-response","76","2.1.0","112860","plt3fbnscud","easy","panda","null","null","<div style=""font-size:60px;"">+</div>","","",""
"","","","","","categorize-image","77","2.1.0","116228","plt3fbnscud","easy","panda","1364","a","stimuli/experiment1a/high_B_101.png","high","B","false"
"","","","","","html-keyboard-response","78","2.1.0","116731","plt3fbnscud","easy","panda","null","null","<div style=""font-size:60px;"">+</div>","","",""
"","","","","","categorize-image","79","2.1.0","119150","plt3fbnscud","easy","panda","414","b","stimuli/experiment1a/high_B_101.png","high","B","true"
"","","","","","html-keyboard-response","80","2.1.0","119653","plt3fbnscud","easy","panda","null","null","<div style=""font-size:60px;"">+</div>","","",""
"","","","","","html-keyboard-response","81","2.1.0","120155","plt3fbnscud","easy","panda","null","null","<div style=""font-size:60px;"">+</div>","","",""
"","","","","","categorize-image","82","2.1.0","122786","plt3fbnscud","easy","panda","627","a","stimuli/experiment1a/high_A_000.png","high","A","true"
"","","","","","html-keyboard-response","83","2.1.0","123289","plt3fbnscud","easy","panda","null","null","<div style=""font-size:60px;"">+</div>","","",""
"","","","","","html-keyboard-response","84","2.1.0","123791","plt3fbnscud","easy","panda","null","null","<div style=""font-size:60px;"">+</div>","","",""
"","","","","","categorize-image","85","2.1.0","126708","plt3fbnscud","easy","panda","912","a","stimuli/experiment1a/high_A_001.png","high","A","true"
"","","","","","html-keyboard-response","86","2.1.0","127211","plt3fbnscud","easy","panda","null","null","<div style=""font-size:60px;"">+</div>","","",""
"","","","","","html-keyboard-response","87","2.1.0","127713","plt3fbnscud","easy","panda","null","null","<div style=""font-size:60px;"">+</div>","","",""
"","","","","","categorize-image","88","2.1.0","131075","plt3fbnscud","easy","panda","1358","b","stimuli/experiment1a/high_B_110.png","high","B","true"
"","","","","","html-keyboard-response","89","2.1.0","131577","plt3fbnscud","easy","panda","null","null","<div style=""font-size:60px;"">+</div>","","",""
"","","","","","html-keyboard-response","90","2.1.0","132080","plt3fbnscud","easy","panda","null","null","<div style=""font-size:60px;"">+</div>","","",""
"","","","","","categorize-image","91","2.1.0","134733","plt3fbnscud","easy","panda","649","a","stimuli/experiment1a/high_A_010.png","high","A","true"
"","","","","","image-keyboard-response","92","null","135911","plt3fbnscud","easy","panda","1175","q","stimuli/experiment_check.webp","","",""
"","","","","","html-keyboard-response","93","2.1.0","136544","plt3fbnscud","easy","panda","632"," ","<p>Fluffy blesses you. Good job!</p><p>Press any key to continue.</p>","","",""
"","","","","","html-keyboard-response","94","2.1.0","138730","plt3fbnscud","easy","panda","2185"," ","<p><strong>TEST BLOCK 3 FINISHED</strong></p><p>Press any key to continue.</p>","","",""
"","","","","","html-keyboard-response","95","2.1.0","139232","plt3fbnscud","easy","panda","null","null","<div style=""font-size:60px;"">+</div>","","",""
"","","","","","html-keyboard-response","96","2.1.0","139735","plt3fbnscud","easy","panda","null","null","<div style=""font-size:60px;"">+</div>","","",""
"","","","","","categorize-image","97","2.1.0","143190","plt3fbnscud","easy","panda","1451","a","stimuli/experiment1a/high_A_000.png","high","A","true"
"","","","","","html-keyboard-response","98","2.1.0","143693","plt3fbnscud","easy","panda","null","null","<div style=""font-size:60px;"">+</div>","","",""
"","","","","","html-keyboard-response","99","2.1.0","144195","plt3fbnscud","easy","panda","null","null","<div style=""font-size:60px;"">+</div>","","",""
"","","","","","categorize-image","100","2.1.0","146635","plt3fbnscud","easy","panda","436","b","stimuli/experiment1a/high_B_111.png","high","B","true"
"","","","","","html-keyboard-response","101","2.1.0","147139","plt3fbnscud","easy","panda","null","null","<div style=""font-size:60px;"">+</div>","","",""
"","","","","","html-keyboard-response","102","2.1.0","147641","plt3fbnscud","easy","panda","null","null","<div style=""font-size:60px;"">+</div>","","",""
"","","","","","categorize-image","103","2.1.0","150558","plt3fbnscud","easy","panda","913","a","stimuli/experiment1a/high_A_001.png","high","A","true"
"","","","","","html-keyboard-response","104","2.1.0","151061","plt3fbnscud","easy","panda","null","null","<div style=""font-size:60px;"">+</div>","","",""
"","","","","","html-keyboard-response","105","2.1.0","151563","plt3fbnscud","easy","panda","null","null","<div style=""font-size:60px;"">+</div>","","",""
"","","","","","categorize-image","106","2.1.0","154375","plt3fbnscud","easy","panda","808","b","stimuli/experiment1a/high_B_111.png","high","B","true"
"","","","","","html-keyboard-response","107","2.1.0","154878","plt3fbnscud","easy","panda","null","null","<div style=""font-size:60px;"">+</div>","","",""
"","","","","","html-keyboard-response","108","2.1.0","155379","plt3fbnscud","easy","panda","null","null","<div style=""font-size:60px;"">+</div>","","",""
"","","","","","categorize-image","109","2.1.0","158019","plt3fbnscud","easy","panda","635","a","stimuli/experiment1a/high_A_010.png","high","A","true"
"","","","","","html-keyboard-response","110","2.1.0","158522","plt3fbnscud","easy","panda","null","null","<div style=""font-size:60px;"">+</div>","","",""
"","","","","","html-keyboard-response","111","2.1.0","159024","plt3fbnscud","easy","panda","null","null","<div style=""font-size:60px;"">+</div>","","",""
"","","","","","categorize-image","112","2.1.0","161579","plt3fbnscud","easy","panda","551","b","stimuli/experiment1a/high_B_110.png","high","B","true"
"","","","","","html-keyboard-response","113","2.1.0","162082","plt3fbnscud","easy","panda","null","null","<div style=""font-size:60px;"">+</div>","","",""
"","","","","","html-keyboard-response","114","2.1.0","162584","plt3fbnscud","easy","panda","null","null","<div style=""font-size:60px;"">+</div>","","",""
"","","","","","categorize-image","115","2.1.0","165312","plt3fbnscud","easy","panda","724","a","stimuli/experiment1a/high_A_000.png","high","A","true"
"","","","","","html-keyboard-response","116","2.1.0","165815","plt3fbnscud","easy","panda","null","null","<div style=""font-size:60px;"">+</div>","","",""
"","","","","","html-keyboard-response","117","2.1.0","166318","plt3fbnscud","easy","panda","null","null","<div style=""font-size:60px;"">+</div>","","",""
"","","","","","categorize-image","118","2.1.0","168974","plt3fbnscud","easy","panda","653","b","stimuli/experiment1a/high_B_101.png","high","B","true"
"","","","","","image-keyboard-response","119","null","170050","plt3fbnscud","easy","panda","1074","q","stimuli/experiment_check.webp","","",""
"","","","","","html-keyboard-response","120","2.1.0","170670","plt3fbnscud","easy","panda","618"," ","<p>Fluffy blesses you. Good job!</p><p>Press any key to continue.</p>","","",""
"","","","","","html-keyboard-response","121","2.1.0","171010","plt3fbnscud","easy","panda","340"," ","<p><strong>TEST BLOCK 4 FINISHED</strong></p><p>Press any key to continue.</p>","","",""
"","","","","","html-keyboard-response","122","2.1.0","171512","plt3fbnscud","easy","panda","null","null","<div style=""font-size:60px;"">+</div>","","",""
"","","","","","html-keyboard-response","123","2.1.0","172014","plt3fbnscud","easy","panda","null","null","<div style=""font-size:60px;"">+</div>","","",""
"","","","","","categorize-image","124","2.1.0","175359","plt3fbnscud","easy","panda","1341","a","stimuli/experiment1a/high_A_001.png","high","A","true"
"","","","","","html-keyboard-response","125","2.1.0","175861","plt3fbnscud","easy","panda","null","null","<div style=""font-size:60px;"">+</div>","","",""
"","","","","","html-keyboard-response","126","2.1.0","176364","plt3fbnscud","easy","panda","null","null","<div style=""font-size:60px;"">+</div>","","",""
"","","","","","categorize-image","127","2.1.0","178975","plt3fbnscud","easy","panda","607","b","stimuli/experiment1a/high_B_111.png","high","B","true"
"","","","","","html-keyboard-response","128","2.1.0","179479","plt3fbnscud","easy","panda","null","null","<div style=""font-size:60px;"">+</div>","","",""
"","","","","","html-keyboard-response","129","2.1.0","179981","plt3fbnscud","easy","panda","null","null","<div style=""font-size:60px;"">+</div>","","",""
"","","","","","categorize-image","130","2.1.0","182751","plt3fbnscud","easy","panda","767","b","stimuli/experiment1a/high_B_110.png","high","B","true"
"","","","","","html-keyboard-response","131","2.1.0","183254","plt3fbnscud","easy","panda","null","null","<div style=""font-size:60px;"">+</div>","","",""
"","","","","","html-keyboard-response","132","2.1.0","183756","plt3fbnscud","easy","panda","null","null","<div style=""font-size:60px;"">+</div>","","",""
"","","","","","categorize-image","133","2.1.0","186369","plt3fbnscud","easy","panda","609","a","stimuli/experiment1a/high_A_000.png","high","A","true"
"","","","","","html-keyboard-response","134","2.1.0","186872","plt3fbnscud","easy","panda","null","null","<div style=""font-size:60px;"">+</div>","","",""
"","","","","","html-keyboard-response","135","2.1.0","187374","plt3fbnscud","easy","panda","null","null","<div style=""font-size:60px;"">+</div>","","",""
"","","","","","categorize-image","136","2.1.0","190053","plt3fbnscud","easy","panda","676","b","stimuli/experiment1a/high_B_111.png","high","B","true"
"","","","","","html-keyboard-response","137","2.1.0","190556","plt3fbnscud","easy","panda","null","null","<div style=""font-size:60px;"">+</div>","","",""
"","","","","","html-keyboard-response","138","2.1.0","191058","plt3fbnscud","easy","panda","null","null","<div style=""font-size:60px;"">+</div>","","",""
"","","","","","categorize-image","139","2.1.0","193728","plt3fbnscud","easy","panda","667","a","stimuli/experiment1a/high_A_010.png","high","A","true"
"","","","","","html-keyboard-response","140","2.1.0","194231","plt3fbnscud","easy","panda","null","null","<div style=""font-size:60px;"">+</div>","","",""
"","","","","","html-keyboard-response","141","2.1.0","194733","plt3fbnscud","easy","panda","null","null","<div style=""font-size:60px;"">+</div>","","",""
"","","","","","categorize-image","142","2.1.0","197535","plt3fbnscud","easy","panda","797","b","stimuli/experiment1a/high_A_000.png","high","A","false"
"","","","","","html-keyboard-response","143","2.1.0","198037","plt3fbnscud","easy","panda","null","null","<div style=""font-size:60px;"">+</div>","","",""
"","","","","","categorize-image","144","2.1.0","200431","plt3fbnscud","easy","panda","389","a","stimuli/experiment1a/high_A_000.png","high","A","true"
"","","","","","html-keyboard-response","145","2.1.0","200933","plt3fbnscud","easy","panda","null","null","<div style=""font-size:60px;"">+</div>","","",""
"","","","","","html-keyboard-response","146","2.1.0","201435","plt3fbnscud","easy","panda","null","null","<div style=""font-size:60px;"">+</div>","","",""
"","","","","","categorize-image","147","2.1.0","204061","plt3fbnscud","easy","panda","621","b","stimuli/experiment1a/high_B_101.png","high","B","true"
"","","","","","image-keyboard-response","148","null","205120","plt3fbnscud","easy","panda","1056","q","stimuli/experiment_check.webp","","",""
"","","","","","html-keyboard-response","149","2.1.0","205515","plt3fbnscud","easy","panda","394"," ","<p>Fluffy blesses you. Good job!</p><p>Press any key to continue.</p>","","",""
"","","","","","html-keyboard-response","150","2.1.0","205799","plt3fbnscud","easy","panda","283"," ","<p><strong>TEST BLOCK 5 FINISHED</strong></p><p>Press any key to continue.</p>","","",""
"","","","","","html-keyboard-response","151","2.1.0","206301","plt3fbnscud","easy","panda","null","null","<div style=""font-size:60px;"">+</div>","","",""
"","","","","","html-keyboard-response","152","2.1.0","206803","plt3fbnscud","easy","panda","null","null","<div style=""font-size:60px;"">+</div>","","",""
"","","","","","categorize-image","153","2.1.0","209781","plt3fbnscud","easy","panda","975","b","stimuli/experiment1a/high_B_111.png","high","B","true"
"","","","","","html-keyboard-response","154","2.1.0","210284","plt3fbnscud","easy","panda","null","null","<div style=""font-size:60px;"">+</div>","","",""
"","","","","","html-keyboard-response","155","2.1.0","210786","plt3fbnscud","easy","panda","null","null","<div style=""font-size:60px;"">+</div>","","",""
"","","","","","categorize-image","156","2.1.0","213335","plt3fbnscud","easy","panda","545","a","stimuli/experiment1a/high_B_101.png","high","B","false"
"","","","","","html-keyboard-response","157","2.1.0","213838","plt3fbnscud","easy","panda","null","null","<div style=""font-size:60px;"">+</div>","","",""
"","","","","","categorize-image","158","2.1.0","216436","plt3fbnscud","easy","panda","596","b","stimuli/experiment1a/high_B_101.png","high","B","true"
"","","","","","html-keyboard-response","159","2.1.0","216939","plt3fbnscud","easy","panda","null","null","<div style=""font-size:60px;"">+</div>","","",""
"","","","","","html-keyboard-response","160","2.1.0","217441","plt3fbnscud","easy","panda","null","null","<div style=""font-size:60px;"">+</div>","","",""
"","","","","","categorize-image","161","2.1.0","220299","plt3fbnscud","easy","panda","854","a","stimuli/experiment1a/high_A_000.png","high","A","true"
"","","","","","html-keyboard-response","162","2.1.0","220802","plt3fbnscud","easy","panda","null","null","<div style=""font-size:60px;"">+</div>","","",""
"","","","","","html-keyboard-response","163","2.1.0","221305","plt3fbnscud","easy","panda","null","null","<div style=""font-size:60px;"">+</div>","","",""
"","","","","","categorize-image","164","2.1.0","224387","plt3fbnscud","easy","panda","1079","a","stimuli/experiment1a/high_A_001.png","high","A","true"
"","","","","","html-keyboard-response","165","2.1.0","224890","plt3fbnscud","easy","panda","null","null","<div style=""font-size:60px;"">+</div>","","",""
"","","","","","html-keyboard-response","166","2.1.0","225393","plt3fbnscud","easy","panda","null","null","<div style=""font-size:60px;"">+</div>","","",""
"","","","","","categorize-image","167","2.1.0","228282","plt3fbnscud","easy","panda","886","b","stimuli/experiment1a/high_B_111.png","high","B","true"
"","","","","","html-keyboard-response","168","2.1.0","228785","plt3fbnscud","easy","panda","null","null","<div style=""font-size:60px;"">+</div>","","",""
"","","","","","html-keyboard-response","169","2.1.0","229287","plt3fbnscud","easy","panda","null","null","<div style=""font-size:60px;"">+</div>","","",""
"","","","","","categorize-image","170","2.1.0","232873","plt3fbnscud","easy","panda","1582","b","stimuli/experiment1a/high_B_110.png","high","B","true"
"","","","","","html-keyboard-response","171","2.1.0","233376","plt3fbnscud","easy","panda","null","null","<div style=""font-size:60px;"">+</div>","","",""
"","","","","","html-keyboard-response","172","2.1.0","233878","plt3fbnscud","easy","panda","null","null","<div style=""font-size:60px;"">+</div>","","",""
"","","","","","categorize-image","173","2.1.0","237960","plt3fbnscud","easy","panda","2079","b","stimuli/experiment1a/high_A_010.png","high","A","false"
"","","","","","html-keyboard-response","174","2.1.0","238463","plt3fbnscud","easy","panda","null","null","<div style=""font-size:60px;"">+</div>","","",""
"","","","","","categorize-image","175","2.1.0","241086","plt3fbnscud","easy","panda","620","a","stimuli/experiment1a/high_A_010.png","high","A","true"
"","","","","","html-keyboard-response","176","2.1.0","241589","plt3fbnscud","easy","panda","null","null","<div style=""font-size:60px;"">+</div>","","",""
"","","","","","html-keyboard-response","177","2.1.0","242092","plt3fbnscud","easy","panda","null","null","<div style=""font-size:60px;"">+</div>","","",""
"","","","","","categorize-image","178","2.1.0","245120","plt3fbnscud","easy","panda","1024","a","stimuli/experiment1a/high_A_000.png","high","A","true"
"","","","","","image-keyboard-response","179","null","246031","plt3fbnscud","easy","panda","908","q","stimuli/experiment_check.webp","","",""
"","","","","","html-keyboard-response","180","2.1.0","247208","plt3fbnscud","easy","panda","1177"," ","<p>Fluffy blesses you. Good job!</p><p>Press any key to continue.</p>","","",""
"","","","","","html-keyboard-response","181","2.1.0","247901","plt3fbnscud","easy","panda","692"," ","<p><strong>TEST BLOCK 6 FINISHED</strong></p><p>Press any key to continue.</p>","","",""
"","","","","","survey-text","182","2.1.0","293271","plt3fbnscud","easy","panda","45362","{""Language"":""yes"",""Art_background"":""very minimal with pastels, watercolor pencils. I used to go to an art class when I was in middle school."",""Strategy"":""I just put the vibrant colors in one category and the muted colors in another.""}","","","",""
"","","","","","survey-text","183","2.1.0","306191","plt3fbnscud","easy","panda","12919","{""Issues"":""no"",""Why_experiment"":""Whether we can differentiate colors."",""Extra_info"":""no""}","","","",""
