"success","timeout","failed_images","failed_audio","failed_video","trial_type","trial_index","plugin_version","time_elapsed","random_id","condition","participant","rt","response","stimulus","nameability","correct_category","correct"
"true","false","[]","[]","[]","preload","0","2.1.0","97","pmwedmrrl6u","hard","goldfish","","","","","",""
"true","","","","","fullscreen","1","2.1.0","12878","pmwedmrrl6u","hard","goldfish","11778","","","","",""
"","","","","","survey-text","2","2.1.0","21060","pmwedmrrl6u","hard","goldfish","8178","{""participant_id"":""goldfish""}","","","",""
"","","","","","html-keyboard-response","3","2.1.0","33378","pmwedmrrl6u","hard","goldfish","12317"," ","
     <p> Welcome to the experiment! </p>

     <p> In this experiment, you will see a series of images. </p>
     <p> Your task is to categorize each image into one of two categories (A and B) as quickly and accurately as possible. </p>
     <p> You will receive feedback after each response. If you get the category wrong, you will be asked to choose the category again</p>
   ","","",""
"","","","","","html-keyboard-response","4","2.1.0","33880","pmwedmrrl6u","hard","goldfish","null","null","<div style=""font-size:60px;"">+</div>","","",""
"","","","","","html-keyboard-response","5","2.1.0","34383","pmwedmrrl6u","hard","goldfish","null","null","<div style=""font-size:60px;"">+</div>","","",""
"","","","","","categorize-image","6","2.1.0","42081","pmwedmrrl6u","hard","goldfish","5692","a","stimuli/experiment1a/low_B_111.png","low","B","false"
"","","","","","html-keyboard-response","7","2.1.0","42585","pmwedmrrl6u","hard","goldfish","null","null","<div style=""font-size:60px;"">+</div>","","",""
"","","","","","categorize-image","8","2.1.0","45452","pmwedmrrl6u","hard","goldfish","863","b","stimuli/experiment1a/low_B_111.png","low","B","true"
"","","","","","html-keyboard-response","9","2.1.0","45956","pmwedmrrl6u","hard","goldfish","null","null","<div style=""font-size:60px;"">+</div>","","",""
"","","","","","html-keyboard-response","10","2.1.0","46458","pmwedmrrl6u","hard","goldfish","null","null","<div style=""font-size:60px;"">+</div>","","",""
"","","","","","categorize-image","11","2.1.0","49704","pmwedmrrl6u","hard","goldfish","1242","b","stimuli/experiment1a/low_B_101.png","low","B","true"
"","","","","","html-keyboard-response","12","2.1.0","50207","pmwedmrrl6u","hard","goldfish","null","null","<div style=""font-size:60px;"">+</div>","","",""
"","","","","","html-keyboard-response","13","2.1.0","50709","pmwedmrrl6u","hard","goldfish","null","null","<div style=""font-size:60px;"">+</div>","","",""
"","","","","","categorize-image","14","2.1.0","53614","pmwedmrrl6u","hard","goldfish","901","a","stimuli/experiment1a/low_B_110.png","low","B","false"
"","","","","","html-keyboard-response","15","2.1.0","54117","pmwedmrrl6u","hard","goldfish","null","null","<div style=""font-size:60px;"">+</div>","","",""
"","","","","","categorize-image","16","2.1.0","56532","pmwedmrrl6u","hard","goldfish","410","b","stimuli/experiment1a/low_B_110.png","low","B","true"
"","","","","","html-keyboard-response","17","2.1.0","57035","pmwedmrrl6u","hard","goldfish","null","null","<div style=""font-size:60px;"">+</div>","","",""
"","","","","","html-keyboard-response","18","2.1.0","57537","pmwedmrrl6u","hard","goldfish","null","null","<div style=""font-size:60px;"">+</div>","","",""
"","","","","","categorize-image","19","2.1.0","61156","pmwedmrrl6u","hard","goldfish","1615","a","stimuli/experiment1a/low_A_000.png","low","A","true"
"","","","","","html-keyboard-response","20","2.1.0","61659","pmwedmrrl6u","hard","goldfish","null","null","<div style=""font-size:60px;"">+</div>","","",""
"","","","","","html-keyboard-response","21","2.1.0","62161","pmwedmrrl6u","hard","goldfish","null","null","<div style=""font-size:60px;"">+</div>","","",""
"","","","","","categorize-image","22","2.1.0","65577","pmwedmrrl6u","hard","goldfish","1412","a","stimuli/experiment1a/low_A_001.png","low","A","true"
"","","","","","html-keyboard-response","23","2.1.0","66080","pmwedmrrl6u","hard","goldfish","null","null","<div style=""font-size:60px;"">+</div>","","",""
"","","","","","html-keyboard-response","24","2.1.0","66583","pmwedmrrl6u","hard","goldfish","null","null","<div style=""font-size:60px;"">+</div>","","",""
"","","","","","categorize-image","25","2.1.0","69153","pmwedmrrl6u","hard","goldfish","567","a","stimuli/experiment1a/low_A_000.png","low","A","true"
"","","","","","html-keyboard-response","26","2.1.0","69656","pmwedmrrl6u","hard","goldfish","null","null","<div style=""font-size:60px;"">+</div>","","",""
"","","","","","html-keyboard-response","27","2.1.0","70158","pmwedmrrl6u","hard","goldfish","null","null","<div style=""font-size:60px;"">+</div>","","",""
"","","","","","categorize-image","28","2.1.0","72594","pmwedmrrl6u","hard","goldfish","432","b","stimuli/experiment1a/low_B_111.png","low","B","true"
"","","","","","html-keyboard-response","29","2.1.0","73097","pmwedmrrl6u","hard","goldfish","null","null","<div style=""font-size:60px;"">+</div>","","",""
"","","","","","html-keyboard-response","30","2.1.0","73599","pmwedmrrl6u","hard","goldfish","null","null","<div style=""font-size:60px;"">+</div>","","",""
"","","","","","categorize-image","31","2.1.0","75977","pmwedmrrl6u","hard","goldfish","374","a","stimuli/experiment1a/low_A_010.png","low","A","true"
"","","","","","image-keyboard-response","32","null","77809","pmwedmrrl6u","hard","goldfish","1828","q","stimuli/experiment_check.webp","","",""
"","","","","","html-keyboard-response","33","2.1.0","79260","pmwedmrrl6u","hard","goldfish","1450","a","<p>Fluffy blesses you. Good job!</p><p>Press any key to continue.</p>","","",""
"","","","","","html-keyboard-response","34","2.1.0","80155","pmwedmrrl6u","hard","goldfish","894"," ","<p><strong>TEST BLOCK 1 FINISHED</strong></p><p>Press any key to continue.</p>","","",""
"","","","","","html-keyboard-response","35","2.1.0","80656","pmwedmrrl6u","hard","goldfish","null","null","<div style=""font-size:60px;"">+</div>","","",""
"","","","","","html-keyboard-response","36","2.1.0","81159","pmwedmrrl6u","hard","goldfish","null","null","<div style=""font-size:60px;"">+</div>","","",""
"","","","","","categorize-image","37","2.1.0","84867","pmwedmrrl6u","hard","goldfish","1705","a","stimuli/experiment1a/low_B_101.png","low","B","false"
"","","","","","html-keyboard-response","38","2.1.0","85370","pmwedmrrl6u","hard","goldfish","null","null","<div style=""font-size:60px;"">+</div>","","",""
"","","","","","categorize-image","39","2.1.0","87647","pmwedmrrl6u","hard","goldfish","274","b","stimuli/experiment1a/low_B_101.png","low","B","true"
"","","","","","html-keyboard-response","40","2.1.0","88150","pmwedmrrl6u","hard","goldfish","null","null","<div style=""font-size:60px;"">+</div>","","",""
"","","","","","html-keyboard-response","41","2.1.0","88652","pmwedmrrl6u","hard","goldfish","null","null","<div style=""font-size:60px;"">+</div>","","",""
"","","","","","categorize-image","42","2.1.0","91464","pmwedmrrl6u","hard","goldfish","808","b","stimuli/experiment1a/low_A_001.png","low","A","false"
"","","","","","html-keyboard-response","43","2.1.0","91966","pmwedmrrl6u","hard","goldfish","null","null","<div style=""font-size:60px;"">+</div>","","",""
"","","","","","categorize-image","44","2.1.0","94261","pmwedmrrl6u","hard","goldfish","291","a","stimuli/experiment1a/low_A_001.png","low","A","true"
"","","","","","html-keyboard-response","45","2.1.0","94764","pmwedmrrl6u","hard","goldfish","null","null","<div style=""font-size:60px;"">+</div>","","",""
"","","","","","html-keyboard-response","46","2.1.0","95265","pmwedmrrl6u","hard","goldfish","null","null","<div style=""font-size:60px;"">+</div>","","",""
"","","","","","categorize-image","47","2.1.0","99652","pmwedmrrl6u","hard","goldfish","2383","a","stimuli/experiment1a/low_B_110.png","low","B","false"
"","","","","","html-keyboard-response","48","2.1.0","100154","pmwedmrrl6u","hard","goldfish","null","null","<div style=""font-size:60px;"">+</div>","","",""
"","","","","","categorize-image","49","2.1.0","102325","pmwedmrrl6u","hard","goldfish","166","b","stimuli/experiment1a/low_B_110.png","low","B","true"
"","","","","","html-keyboard-response","50","2.1.0","102828","pmwedmrrl6u","hard","goldfish","null","null","<div style=""font-size:60px;"">+</div>","","",""
"","","","","","html-keyboard-response","51","2.1.0","103330","pmwedmrrl6u","hard","goldfish","null","null","<div style=""font-size:60px;"">+</div>","","",""
"","","","","","categorize-image","52","2.1.0","107763","pmwedmrrl6u","hard","goldfish","2429","b","stimuli/experiment1a/low_B_111.png","low","B","true"
"","","","","","html-keyboard-response","53","2.1.0","108267","pmwedmrrl6u","hard","goldfish","null","null","<div style=""font-size:60px;"">+</div>","","",""
"","","","","","html-keyboard-response","54","2.1.0","108768","pmwedmrrl6u","hard","goldfish","null","null","<div style=""font-size:60px;"">+</div>","","",""
"","","","","","categorize-image","55","2.1.0","111458","pmwedmrrl6u","hard","goldfish","687","a","stimuli/experiment1a/low_A_000.png","low","A","true"
"","","","","","html-keyboard-response","56","2.1.0","111961","pmwedmrrl6u","hard","goldfish","null","null","<div style=""font-size:60px;"">+</div>","","",""
"","","","","","html-keyboard-response","57","2.1.0","112463","pmwedmrrl6u","hard","goldfish","null","null","<div style=""font-size:60px;"">+</div>","","",""
"","","","","","categorize-image","58","2.1.0","115365","pmwedmrrl6u","hard","goldfish","899","a","stimuli/experiment1a/low_A_010.png","low","A","true"
"","","","","","html-keyboard-response","59","2.1.0","115868","pmwedmrrl6u","hard","goldfish","null","null","<div style=""font-size:60px;"">+</div>","","",""
"","","","","","html-keyboard-response","60","2.1.0","116370","pmwedmrrl6u","hard","goldfish","null","null","<div style=""font-size:60px;"">+</div>","","",""
"","","","","","categorize-image","61","2.1.0","118971","pmwedmrrl6u","hard","goldfish","597","b","stimuli/experiment1a/low_B_111.png","low","B","true"
"","","","","","html-keyboard-response","62","2.1.0","119474","pmwedmrrl6u","hard","goldfish","null","null","<div style=""font-size:60px;"">+</div>","","",""
"","","","","","html-keyboard-response","63","2.1.0","119976","pmwedmrrl6u","hard","goldfish","null","null","<div style=""font-size:60px;"">+</div>","","",""
"","","","","","categorize-image","64","2.1.0","122570","pmwedmrrl6u","hard","goldfish","591","a","stimuli/experiment1a/low_A_000.png","low","A","true"
"","","","","","image-keyboard-response","65","null","123733","pmwedmrrl6u","hard","goldfish","1160","q","stimuli/experiment_check.webp","","",""
"","","","","","html-keyboard-response","66","2.1.0","124427","pmwedmrrl6u","hard","goldfish","693"," ","<p>Fluffy blesses you. Good job!</p><p>Press any key to continue.</p>","","",""
"","","","","","html-keyboard-response","67","2.1.0","124867","pmwedmrrl6u","hard","goldfish","440","a","<p><strong>TEST BLOCK 2 FINISHED</strong></p><p>Press any key to continue.</p>","","",""
"","","","","","html-keyboard-response","68","2.1.0","125369","pmwedmrrl6u","hard","goldfish","null","null","<div style=""font-size:60px;"">+</div>","","",""
"","","","","","html-keyboard-response","69","2.1.0","125871","pmwedmrrl6u","hard","goldfish","null","null","<div style=""font-size:60px;"">+</div>","","",""
"","","","","","categorize-image","70","2.1.0","131306","pmwedmrrl6u","hard","goldfish","3431","b","stimuli/experiment1a/low_B_111.png","low","B","true"
"","","","","","html-keyboard-response","71","2.1.0","131809","pmwedmrrl6u","hard","goldfish","null","null","<div style=""font-size:60px;"">+</div>","","",""
"","","","","","html-keyboard-response","72","2.1.0","132311","pmwedmrrl6u","hard","goldfish","null","null","<div style=""font-size:60px;"">+</div>","","",""
"","","","","","categorize-image","73","2.1.0","134812","pmwedmrrl6u","hard","goldfish","497","a","stimuli/experiment1a/low_A_000.png","low","A","true"
"","","","","","html-keyboard-response","74","2.1.0","135314","pmwedmrrl6u","hard","goldfish","null","null","<div style=""font-size:60px;"">+</div>","","",""
"","","","","","html-keyboard-response","75","2.1.0","135816","pmwedmrrl6u","hard","goldfish","null","null","<div style=""font-size:60px;"">+</div>","","",""
"","","","","","categorize-image","76","2.1.0","139629","pmwedmrrl6u","hard","goldfish","1809","b","stimuli/experiment1a/low_B_101.png","low","B","true"
"","","","","","html-keyboard-response","77","2.1.0","140131","pmwedmrrl6u","hard","goldfish","null","null","<div style=""font-size:60px;"">+</div>","","",""
"","","","","","html-keyboard-response","78","2.1.0","140634","pmwedmrrl6u","hard","goldfish","null","null","<div style=""font-size:60px;"">+</div>","","",""
"","","","","","categorize-image","79","2.1.0","145111","pmwedmrrl6u","hard","goldfish","2473","b","stimuli/experiment1a/low_B_110.png","low","B","true"
"","","","","","html-keyboard-response","80","2.1.0","145614","pmwedmrrl6u","hard","goldfish","null","null","<div style=""font-size:60px;"">+</div>","","",""
"","","","","","html-keyboard-response","81","2.1.0","146116","pmwedmrrl6u","hard","goldfish","null","null","<div style=""font-size:60px;"">+</div>","","",""
"","","","","","categorize-image","82","2.1.0","148619","pmwedmrrl6u","hard","goldfish","499","a","stimuli/experiment1a/low_A_001.png","low","A","true"
"","","","","","html-keyboard-response","83","2.1.0","149121","pmwedmrrl6u","hard","goldfish","null","null","<div style=""font-size:60px;"">+</div>","","",""
"","","","","","html-keyboard-response","84","2.1.0","149624","pmwedmrrl6u","hard","goldfish","null","null","<div style=""font-size:60px;"">+</div>","","",""
"","","","","","categorize-image","85","2.1.0","154140","pmwedmrrl6u","hard","goldfish","2513","a","stimuli/experiment1a/low_A_000.png","low","A","true"
"","","","","","html-keyboard-response","86","2.1.0","154643","pmwedmrrl6u","hard","goldfish","null","null","<div style=""font-size:60px;"">+</div>","","",""
"","","","","","html-keyboard-response","87","2.1.0","155145","pmwedmrrl6u","hard","goldfish","null","null","<div style=""font-size:60px;"">+</div>","","",""
"","","","","","categorize-image","88","2.1.0","158457","pmwedmrrl6u","hard","goldfish","1308","b","stimuli/experiment1a/low_A_010.png","low","A","false"
"","","","","","html-keyboard-response","89","2.1.0","158959","pmwedmrrl6u","hard","goldfish","null","null","<div style=""font-size:60px;"">+</div>","","",""
"","","","","","categorize-image","90","2.1.0","161998","pmwedmrrl6u","hard","goldfish","1036","a","stimuli/experiment1a/low_A_010.png","low","A","true"
"","","","","","html-keyboard-response","91","2.1.0","162501","pmwedmrrl6u","hard","goldfish","null","null","<div style=""font-size:60px;"">+</div>","","",""
"","","","","","html-keyboard-response","92","2.1.0","163002","pmwedmrrl6u","hard","goldfish","null","null","<div style=""font-size:60px;"">+</div>","","",""
"","","","","","categorize-image","93","2.1.0","165810","pmwedmrrl6u","hard","goldfish","804","b","stimuli/experiment1a/low_B_111.png","low","B","true"
"","","","","","image-keyboard-response","94","null","166925","pmwedmrrl6u","hard","goldfish","1112","q","stimuli/experiment_check.webp","","",""
"","","","","","html-keyboard-response","95","2.1.0","167679","pmwedmrrl6u","hard","goldfish","752"," ","<p>Fluffy blesses you. Good job!</p><p>Press any key to continue.</p>","","",""
"","","","","","html-keyboard-response","96","2.1.0","168864","pmwedmrrl6u","hard","goldfish","1184"," ","<p><strong>TEST BLOCK 3 FINISHED</strong></p><p>Press any key to continue.</p>","","",""
"","","","","","html-keyboard-response","97","2.1.0","169366","pmwedmrrl6u","hard","goldfish","null","null","<div style=""font-size:60px;"">+</div>","","",""
"","","","","","html-keyboard-response","98","2.1.0","169868","pmwedmrrl6u","hard","goldfish","null","null","<div style=""font-size:60px;"">+</div>","","",""
"","","","","","categorize-image","99","2.1.0","172456","pmwedmrrl6u","hard","goldfish","584","a","stimuli/experiment1a/low_A_010.png","low","A","true"
"","","","","","html-keyboard-response","100","2.1.0","172958","pmwedmrrl6u","hard","goldfish","null","null","<div style=""font-size:60px;"">+</div>","","",""
"","","","","","html-keyboard-response","101","2.1.0","173460","pmwedmrrl6u","hard","goldfish","null","null","<div style=""font-size:60px;"">+</div>","","",""
"","","","","","categorize-image","102","2.1.0","176980","pmwedmrrl6u","hard","goldfish","1517","a","stimuli/experiment1a/low_A_000.png","low","A","true"
"","","","","","html-keyboard-response","103","2.1.0","177483","pmwedmrrl6u","hard","goldfish","null","null","<div style=""font-size:60px;"">+</div>","","",""
"","","","","","html-keyboard-response","104","2.1.0","177985","pmwedmrrl6u","hard","goldfish","null","null","<div style=""font-size:60px;"">+</div>","","",""
"","","","","","categorize-image","105","2.1.0","181246","pmwedmrrl6u","hard","goldfish","1256","b","stimuli/experiment1a/low_B_110.png","low","B","true"
"","","","","","html-keyboard-response","106","2.1.0","181748","pmwedmrrl6u","hard","goldfish","null","null","<div style=""font-size:60px;"">+</div>","","",""
"","","","","","html-keyboard-response","107","2.1.0","182250","pmwedmrrl6u","hard","goldfish","null","null","<div style=""font-size:60px;"">+</div>","","",""
"","","","","","categorize-image","108","2.1.0","186323","pmwedmrrl6u","hard","goldfish","2069","b","stimuli/experiment1a/low_B_111.png","low","B","true"
"","","","","","html-keyboard-response","109","2.1.0","186826","pmwedmrrl6u","hard","goldfish","null","null","<div style=""font-size:60px;"">+</div>","","",""
"","","","","","html-keyboard-response","110","2.1.0","187328","pmwedmrrl6u","hard","goldfish","null","null","<div style=""font-size:60px;"">+</div>","","",""
"","","","","","categorize-image","111","2.1.0","191665","pmwedmrrl6u","hard","goldfish","2334","b","stimuli/experiment1a/low_B_101.png","low","B","true"
"","","","","","html-keyboard-response","112","2.1.0","192168","pmwedmrrl6u","hard","goldfish","null","null","<div style=""font-size:60px;"">+</div>","","",""
"","","","","","html-keyboard-response","113","2.1.0","192670","pmwedmrrl6u","hard","goldfish","null","null","<div style=""font-size:60px;"">+</div>","","",""
"","","","","","categorize-image","114","2.1.0","195879","pmwedmrrl6u","hard","goldfish","1206","a","stimuli/experiment1a/low_A_000.png","low","A","true"
"","","","","","html-keyboard-response","115","2.1.0","196383","pmwedmrrl6u","hard","goldfish","null","null","<div style=""font-size:60px;"">+</div>","","",""
"","","","","","html-keyboard-response","116","2.1.0","196884","pmwedmrrl6u","hard","goldfish","null","null","<div style=""font-size:60px;"">+</div>","","",""
"","","","","","categorize-image","117","2.1.0","201485","pmwedmrrl6u","hard","goldfish","2598","b","stimuli/experiment1a/low_A_001.png","low","A","false"
"","","","","","html-keyboard-response","118","2.1.0","201988","pmwedmrrl6u","hard","goldfish","null","null","<div style=""font-size:60px;"">+</div>","","",""
"","","","","","categorize-image","119","2.1.0","204094","pmwedmrrl6u","hard","goldfish","102","a","stimuli/experiment1a/low_A_001.png","low","A","true"
"","","","","","html-keyboard-response","120","2.1.0","204598","pmwedmrrl6u","hard","goldfish","null","null","<div style=""font-size:60px;"">+</div>","","",""
"","","","","","html-keyboard-response","121","2.1.0","205099","pmwedmrrl6u","hard","goldfish","null","null","<div style=""font-size:60px;"">+</div>","","",""
"","","","","","categorize-image","122","2.1.0","208170","pmwedmrrl6u","hard","goldfish","1068","b","stimuli/experiment1a/low_B_111.png","low","B","true"
"","","","","","image-keyboard-response","123","null","209220","pmwedmrrl6u","hard","goldfish","1047","q","stimuli/experiment_check.webp","","",""
"","","","","","html-keyboard-response","124","2.1.0","209881","pmwedmrrl6u","hard","goldfish","660"," ","<p>Fluffy blesses you. Good job!</p><p>Press any key to continue.</p>","","",""
"","","","","","html-keyboard-response","125","2.1.0","210844","pmwedmrrl6u","hard","goldfish","962"," ","<p><strong>TEST BLOCK 4 FINISHED</strong></p><p>Press any key to continue.</p>","","",""
"","","","","","html-keyboard-response","126","2.1.0","211346","pmwedmrrl6u","hard","goldfish","null","null","<div style=""font-size:60px;"">+</div>","","",""
"","","","","","html-keyboard-response","127","2.1.0","211848","pmwedmrrl6u","hard","goldfish","null","null","<div style=""font-size:60px;"">+</div>","","",""
"","","","","","categorize-image","128","2.1.0","214972","pmwedmrrl6u","hard","goldfish","1120","a","stimuli/experiment1a/low_A_010.png","low","A","true"
"","","","","","html-keyboard-response","129","2.1.0","215474","pmwedmrrl6u","hard","goldfish","null","null","<div style=""font-size:60px;"">+</div>","","",""
"","","","","","html-keyboard-response","130","2.1.0","215976","pmwedmrrl6u","hard","goldfish","null","null","<div style=""font-size:60px;"">+</div>","","",""
"","","","","","categorize-image","131","2.1.0","218697","pmwedmrrl6u","hard","goldfish","717","a","stimuli/experiment1a/low_A_000.png","low","A","true"
"","","","","","html-keyboard-response","132","2.1.0","219200","pmwedmrrl6u","hard","goldfish","null","null","<div style=""font-size:60px;"">+</div>","","",""
"","","","","","html-keyboard-response","133","2.1.0","219702","pmwedmrrl6u","hard","goldfish","null","null","<div style=""font-size:60px;"">+</div>","","",""
"","","","","","categorize-image","134","2.1.0","222781","pmwedmrrl6u","hard","goldfish","1076","b","stimuli/experiment1a/low_B_101.png","low","B","true"
"","","","","","html-keyboard-response","135","2.1.0","223284","pmwedmrrl6u","hard","goldfish","null","null","<div style=""font-size:60px;"">+</div>","","",""
"","","","","","html-keyboard-response","136","2.1.0","223787","pmwedmrrl6u","hard","goldfish","null","null","<div style=""font-size:60px;"">+</div>","","",""
"","","","","","categorize-image","137","2.1.0","226351","pmwedmrrl6u","hard","goldfish","560","a","stimuli/experiment1a/low_B_110.png","low","B","false"
"","","","","","html-keyboard-response","138","2.1.0","226853","pmwedmrrl6u","hard","goldfish","null","null","<div style=""font-size:60px;"">+</div>","","",""
"","","","","","categorize-image","139","2.1.0","229146","pmwedmrrl6u","hard","goldfish","289","b","stimuli/experiment1a/low_B_110.png","low","B","true"
"","","","","","html-keyboard-response","140","2.1.0","229649","pmwedmrrl6u","hard","goldfish","null","null","<div style=""font-size:60px;"">+</div>","","",""
"","","","","","html-keyboard-response","141","2.1.0","230150","pmwedmrrl6u","hard","goldfish","null","null","<div style=""font-size:60px;"">+</div>","","",""
"","","","","","categorize-image","142","2.1.0","232875","pmwedmrrl6u","hard","goldfish","721","b","stimuli/experiment1a/low_B_111.png","low","B","true"
"","","","","","html-keyboard-response","143","2.1.0","233379","pmwedmrrl6u","hard","goldfish","null","null","<div style=""font-size:60px;"">+</div>","","",""
"","","","","","html-keyboard-response","144","2.1.0","233880","pmwedmrrl6u","hard","goldfish","null","null","<div style=""font-size:60px;"">+</div>","","",""
"","","","","","categorize-image","145","2.1.0","236264","pmwedmrrl6u","hard","goldfish","380","b","stimuli/experiment1a/low_B_111.png","low","B","true"
"","","","","","html-keyboard-response","146","2.1.0","236767","pmwedmrrl6u","hard","goldfish","null","null","<div style=""font-size:60px;"">+</div>","","",""
"","","","","","html-keyboard-response","147","2.1.0","237269","pmwedmrrl6u","hard","goldfish","null","null","<div style=""font-size:60px;"">+</div>","","",""
"","","","","","categorize-image","148","2.1.0","240387","pmwedmrrl6u","hard","goldfish","1114","b","stimuli/experiment1a/low_A_001.png","low","A","false"
"","","","","","html-keyboard-response","149","2.1.0","240890","pmwedmrrl6u","hard","goldfish","null","null","<div style=""font-size:60px;"">+</div>","","",""
"","","","","","categorize-image","150","2.1.0","242952","pmwedmrrl6u","hard","goldfish","58","a","stimuli/experiment1a/low_A_001.png","low","A","true"
"","","","","","html-keyboard-response","151","2.1.0","243455","pmwedmrrl6u","hard","goldfish","null","null","<div style=""font-size:60px;"">+</div>","","",""
"","","","","","html-keyboard-response","152","2.1.0","243957","pmwedmrrl6u","hard","goldfish","null","null","<div style=""font-size:60px;"">+</div>","","",""
"","","","","","categorize-image","153","2.1.0","246776","pmwedmrrl6u","hard","goldfish","815","a","stimuli/experiment1a/low_A_000.png","low","A","true"
"","","","","","image-keyboard-response","154","null","249185","pmwedmrrl6u","hard","goldfish","2406","q","stimuli/experiment_check.webp","","",""
"","","","","","html-keyboard-response","155","2.1.0","250018","pmwedmrrl6u","hard","goldfish","832"," ","<p>Fluffy blesses you. Good job!</p><p>Press any key to continue.</p>","","",""
"","","","","","html-keyboard-response","156","2.1.0","250582","pmwedmrrl6u","hard","goldfish","564"," ","<p><strong>TEST BLOCK 5 FINISHED</strong></p><p>Press any key to continue.</p>","","",""
"","","","","","html-keyboard-response","157","2.1.0","251084","pmwedmrrl6u","hard","goldfish","null","null","<div style=""font-size:60px;"">+</div>","","",""
"","","","","","html-keyboard-response","158","2.1.0","251587","pmwedmrrl6u","hard","goldfish","null","null","<div style=""font-size:60px;"">+</div>","","",""
"","","","","","categorize-image","159","2.1.0","254330","pmwedmrrl6u","hard","goldfish","739","a","stimuli/experiment1a/low_A_010.png","low","A","true"
"","","","","","html-keyboard-response","160","2.1.0","254833","pmwedmrrl6u","hard","goldfish","null","null","<div style=""font-size:60px;"">+</div>","","",""
"","","","","","html-keyboard-response","161","2.1.0","255335","pmwedmrrl6u","hard","goldfish","null","null","<div style=""font-size:60px;"">+</div>","","",""
"","","","","","categorize-image","162","2.1.0","258689","pmwedmrrl6u","hard","goldfish","1351","a","stimuli/experiment1a/low_A_001.png","low","A","true"
"","","","","","html-keyboard-response","163","2.1.0","259193","pmwedmrrl6u","hard","goldfish","null","null","<div style=""font-size:60px;"">+</div>","","",""
"","","","","","html-keyboard-response","164","2.1.0","259694","pmwedmrrl6u","hard","goldfish","null","null","<div style=""font-size:60px;"">+</div>","","",""
"","","","","","categorize-image","165","2.1.0","264091","pmwedmrrl6u","hard","goldfish","2393","b","stimuli/experiment1a/low_B_101.png","low","B","true"
"","","","","","html-keyboard-response","166","2.1.0","264593","pmwedmrrl6u","hard","goldfish","null","null","<div style=""font-size:60px;"">+</div>","","",""
"","","","","","html-keyboard-response","167","2.1.0","265095","pmwedmrrl6u","hard","goldfish","null","null","<div style=""font-size:60px;"">+</div>","","",""
"","","","","","categorize-image","168","2.1.0","267900","pmwedmrrl6u","hard","goldfish","800","b","stimuli/experiment1a/low_B_111.png","low","B","true"
"","","","","","html-keyboard-response","169","2.1.0","268403","pmwedmrrl6u","hard","goldfish","null","null","<div style=""font-size:60px;"">+</div>","","",""
"","","","","","html-keyboard-response","170","2.1.0","268905","pmwedmrrl6u","hard","goldfish","null","null","<div style=""font-size:60px;"">+</div>","","",""
"","","","","","categorize-image","171","2.1.0","271377","pmwedmrrl6u","hard","goldfish","469","a","stimuli/experiment1a/low_B_110.png","low","B","false"
"","","","","","html-keyboard-response","172","2.1.0","271880","pmwedmrrl6u","hard","goldfish","null","null","<div style=""font-size:60px;"">+</div>","","",""
"","","","","","categorize-image","173","2.1.0","274438","pmwedmrrl6u","hard","goldfish","555","b","stimuli/experiment1a/low_B_110.png","low","B","true"
"","","","","","html-keyboard-response","174","2.1.0","274941","pmwedmrrl6u","hard","goldfish","null","null","<div style=""font-size:60px;"">+</div>","","",""
"","","","","","html-keyboard-response","175","2.1.0","275443","pmwedmrrl6u","hard","goldfish","null","null","<div style=""font-size:60px;"">+</div>","","",""
"","","","","","categorize-image","176","2.1.0","278259","pmwedmrrl6u","hard","goldfish","812","a","stimuli/experiment1a/low_A_000.png","low","A","true"
"","","","","","html-keyboard-response","177","2.1.0","278761","pmwedmrrl6u","hard","goldfish","null","null","<div style=""font-size:60px;"">+</div>","","",""
"","","","","","html-keyboard-response","178","2.1.0","279264","pmwedmrrl6u","hard","goldfish","null","null","<div style=""font-size:60px;"">+</div>","","",""
"","","","","","categorize-image","179","2.1.0","281934","pmwedmrrl6u","hard","goldfish","666","a","stimuli/experiment1a/low_A_000.png","low","A","true"
"","","","","","html-keyboard-response","180","2.1.0","282437","pmwedmrrl6u","hard","goldfish","null","null","<div style=""font-size:60px;"">+</div>","","",""
"","","","","","html-keyboard-response","181","2.1.0","282939","pmwedmrrl6u","hard","goldfish","null","null","<div style=""font-size:60px;"">+</div>","","",""
"","","","","","categorize-image","182","2.1.0","286041","pmwedmrrl6u","hard","goldfish","1099","b","stimuli/experiment1a/low_B_111.png","low","B","true"
"","","","","","image-keyboard-response","183","null","287523","pmwedmrrl6u","hard","goldfish","1480","q","stimuli/experiment_check.webp","","",""
"","","","","","html-keyboard-response","184","2.1.0","288234","pmwedmrrl6u","hard","goldfish","709","a","<p>Fluffy blesses you. Good job!</p><p>Press any key to continue.</p>","","",""
"","","","","","html-keyboard-response","185","2.1.0","288711","pmwedmrrl6u","hard","goldfish","476","a","<p><strong>TEST BLOCK 6 FINISHED</strong></p><p>Press any key to continue.</p>","","",""
"","","","","","survey-text","186","2.1.0","340433","pmwedmrrl6u","hard","goldfish","51713","{""Language"":""Yes"",""Art_background"":""Yes, mainly sketching. "",""Strategy"":""The more yellow-ish tones seemed to be in category A while the green-ish tones seemed to be in category B""}","","","",""
"","","","","","survey-text","187","2.1.0","416966","pmwedmrrl6u","hard","goldfish","76531","{""Issues"":""No"",""Why_experiment"":""I honestly don't know. Maybe about how quickly we subconsciously create mental rules and categories based on inherit properties of objects? "",""Extra_info"":""N/A ""}","","","",""
