"success","timeout","failed_images","failed_audio","failed_video","trial_type","trial_index","plugin_version","time_elapsed","random_id","condition","participant","rt","response","stimulus","nameability","correct_category","correct"
"true","false","[]","[]","[]","preload","0","2.1.0","336","pp6shfq8jw6","hard","lynx","","","","","",""
"true","","","","","fullscreen","1","2.1.0","21805","pp6shfq8jw6","hard","lynx","20466","","","","",""
"","","","","","survey-text","2","2.1.0","29381","pp6shfq8jw6","hard","lynx","7567","{""participant_id"":""lynx""}","","","",""
"","","","","","html-keyboard-response","3","2.1.0","36723","pp6shfq8jw6","hard","lynx","7340","b","
     <p> Welcome to the experiment! </p>

     <p> In this experiment, you will see a series of images. </p>
     <p> Your task is to categorize each image into one of two categories (A and B) as quickly and accurately as possible. </p>
     <p> You will receive feedback after each response. If you get the category wrong, you will be asked to choose the category again</p>
   ","","",""
"","","","","","html-keyboard-response","4","2.1.0","37224","pp6shfq8jw6","hard","lynx","null","null","<div style=""font-size:60px;"">+</div>","","",""
"","","","","","html-keyboard-response","5","2.1.0","37730","pp6shfq8jw6","hard","lynx","null","null","<div style=""font-size:60px;"">+</div>","","",""
"","","","","","categorize-image","6","2.1.0","42104","pp6shfq8jw6","hard","lynx","2367","b","stimuli/experiment1a/low_A_001.png","low","A","false"
"","","","","","html-keyboard-response","7","2.1.0","42607","pp6shfq8jw6","hard","lynx","null","null","<div style=""font-size:60px;"">+</div>","","",""
"","","","","","categorize-image","8","2.1.0","45214","pp6shfq8jw6","hard","lynx","603","a","stimuli/experiment1a/low_A_001.png","low","A","true"
"","","","","","html-keyboard-response","9","2.1.0","45720","pp6shfq8jw6","hard","lynx","null","null","<div style=""font-size:60px;"">+</div>","","",""
"","","","","","html-keyboard-response","10","2.1.0","46223","pp6shfq8jw6","hard","lynx","null","null","<div style=""font-size:60px;"">+</div>","","",""
"","","","","","categorize-image","11","2.1.0","48737","pp6shfq8jw6","hard","lynx","509","b","stimuli/experiment1a/low_B_101.png","low","B","true"
"","","","","","html-keyboard-response","12","2.1.0","49242","pp6shfq8jw6","hard","lynx","null","null","<div style=""font-size:60px;"">+</div>","","",""
"","","","","","html-keyboard-response","13","2.1.0","49744","pp6shfq8jw6","hard","lynx","null","null","<div style=""font-size:60px;"">+</div>","","",""
"","","","","","categorize-image","14","2.1.0","52303","pp6shfq8jw6","hard","lynx","554","b","stimuli/experiment1a/low_B_111.png","low","B","true"
"","","","","","html-keyboard-response","15","2.1.0","52807","pp6shfq8jw6","hard","lynx","null","null","<div style=""font-size:60px;"">+</div>","","",""
"","","","","","html-keyboard-response","16","2.1.0","53310","pp6shfq8jw6","hard","lynx","null","null","<div style=""font-size:60px;"">+</div>","","",""
"","","","","","categorize-image","17","2.1.0","56113","pp6shfq8jw6","hard","lynx","798","b","stimuli/experiment1a/low_B_110.png","low","B","true"
"","","","","","html-keyboard-response","18","2.1.0","56618","pp6shfq8jw6","hard","lynx","null","null","<div style=""font-size:60px;"">+</div>","","",""
"","","","","","html-keyboard-response","19","2.1.0","57120","pp6shfq8jw6","hard","lynx","null","null","<div style=""font-size:60px;"">+</div>","","",""
"","","","","","categorize-image","20","2.1.0","59747","pp6shfq8jw6","hard","lynx","623","a","stimuli/experiment1a/low_A_000.png","low","A","true"
"","","","","","html-keyboard-response","21","2.1.0","60251","pp6shfq8jw6","hard","lynx","null","null","<div style=""font-size:60px;"">+</div>","","",""
"","","","","","html-keyboard-response","22","2.1.0","60753","pp6shfq8jw6","hard","lynx","null","null","<div style=""font-size:60px;"">+</div>","","",""
"","","","","","categorize-image","23","2.1.0","63254","pp6shfq8jw6","hard","lynx","496","b","stimuli/experiment1a/low_B_111.png","low","B","true"
"","","","","","html-keyboard-response","24","2.1.0","63759","pp6shfq8jw6","hard","lynx","null","null","<div style=""font-size:60px;"">+</div>","","",""
"","","","","","html-keyboard-response","25","2.1.0","64261","pp6shfq8jw6","hard","lynx","null","null","<div style=""font-size:60px;"">+</div>","","",""
"","","","","","categorize-image","26","2.1.0","66991","pp6shfq8jw6","hard","lynx","724","a","stimuli/experiment1a/low_A_000.png","low","A","true"
"","","","","","html-keyboard-response","27","2.1.0","67495","pp6shfq8jw6","hard","lynx","null","null","<div style=""font-size:60px;"">+</div>","","",""
"","","","","","html-keyboard-response","28","2.1.0","67997","pp6shfq8jw6","hard","lynx","null","null","<div style=""font-size:60px;"">+</div>","","",""
"","","","","","categorize-image","29","2.1.0","70582","pp6shfq8jw6","hard","lynx","580","a","stimuli/experiment1a/low_A_010.png","low","A","true"
"","","","","","image-keyboard-response","30","null","71768","pp6shfq8jw6","hard","lynx","1180","q","stimuli/experiment_check.webp","","",""
"","","","","","html-keyboard-response","31","2.1.0","73772","pp6shfq8jw6","hard","lynx","null","null","<p>Fluffy blesses you. Good job!</p><p>Press any key to continue.</p>","","",""
"","","","","","html-keyboard-response","32","2.1.0","73986","pp6shfq8jw6","hard","lynx","213","b","<p><strong>TEST BLOCK 1 FINISHED</strong></p><p>Press any key to continue.</p>","","",""
"","","","","","html-keyboard-response","33","2.1.0","74488","pp6shfq8jw6","hard","lynx","null","null","<div style=""font-size:60px;"">+</div>","","",""
"","","","","","html-keyboard-response","34","2.1.0","74990","pp6shfq8jw6","hard","lynx","null","null","<div style=""font-size:60px;"">+</div>","","",""
"","","","","","categorize-image","35","2.1.0","78023","pp6shfq8jw6","hard","lynx","1027","b","stimuli/experiment1a/low_B_111.png","low","B","true"
"","","","","","html-keyboard-response","36","2.1.0","78528","pp6shfq8jw6","hard","lynx","null","null","<div style=""font-size:60px;"">+</div>","","",""
"","","","","","html-keyboard-response","37","2.1.0","79031","pp6shfq8jw6","hard","lynx","null","null","<div style=""font-size:60px;"">+</div>","","",""
"","","","","","categorize-image","38","2.1.0","81620","pp6shfq8jw6","hard","lynx","584","b","stimuli/experiment1a/low_B_101.png","low","B","true"
"","","","","","html-keyboard-response","39","2.1.0","82124","pp6shfq8jw6","hard","lynx","null","null","<div style=""font-size:60px;"">+</div>","","",""
"","","","","","html-keyboard-response","40","2.1.0","82626","pp6shfq8jw6","hard","lynx","null","null","<div style=""font-size:60px;"">+</div>","","",""
"","","","","","categorize-image","41","2.1.0","85219","pp6shfq8jw6","hard","lynx","588","a","stimuli/experiment1a/low_A_010.png","low","A","true"
"","","","","","html-keyboard-response","42","2.1.0","85724","pp6shfq8jw6","hard","lynx","null","null","<div style=""font-size:60px;"">+</div>","","",""
"","","","","","html-keyboard-response","43","2.1.0","86225","pp6shfq8jw6","hard","lynx","null","null","<div style=""font-size:60px;"">+</div>","","",""
"","","","","","categorize-image","44","2.1.0","88893","pp6shfq8jw6","hard","lynx","666","a","stimuli/experiment1a/low_A_001.png","low","A","true"
"","","","","","html-keyboard-response","45","2.1.0","89396","pp6shfq8jw6","hard","lynx","null","null","<div style=""font-size:60px;"">+</div>","","",""
"","","","","","html-keyboard-response","46","2.1.0","89899","pp6shfq8jw6","hard","lynx","null","null","<div style=""font-size:60px;"">+</div>","","",""
"","","","","","categorize-image","47","2.1.0","92536","pp6shfq8jw6","hard","lynx","632","b","stimuli/experiment1a/low_B_111.png","low","B","true"
"","","","","","html-keyboard-response","48","2.1.0","93040","pp6shfq8jw6","hard","lynx","null","null","<div style=""font-size:60px;"">+</div>","","",""
"","","","","","html-keyboard-response","49","2.1.0","93541","pp6shfq8jw6","hard","lynx","null","null","<div style=""font-size:60px;"">+</div>","","",""
"","","","","","categorize-image","50","2.1.0","96107","pp6shfq8jw6","hard","lynx","560","a","stimuli/experiment1a/low_A_000.png","low","A","true"
"","","","","","html-keyboard-response","51","2.1.0","96611","pp6shfq8jw6","hard","lynx","null","null","<div style=""font-size:60px;"">+</div>","","",""
"","","","","","html-keyboard-response","52","2.1.0","97114","pp6shfq8jw6","hard","lynx","null","null","<div style=""font-size:60px;"">+</div>","","",""
"","","","","","categorize-image","53","2.1.0","99816","pp6shfq8jw6","hard","lynx","697","a","stimuli/experiment1a/low_A_000.png","low","A","true"
"","","","","","html-keyboard-response","54","2.1.0","100320","pp6shfq8jw6","hard","lynx","null","null","<div style=""font-size:60px;"">+</div>","","",""
"","","","","","html-keyboard-response","55","2.1.0","100822","pp6shfq8jw6","hard","lynx","null","null","<div style=""font-size:60px;"">+</div>","","",""
"","","","","","categorize-image","56","2.1.0","103619","pp6shfq8jw6","hard","lynx","792","b","stimuli/experiment1a/low_B_110.png","low","B","true"
"","","","","","image-keyboard-response","57","null","104816","pp6shfq8jw6","hard","lynx","1194","q","stimuli/experiment_check.webp","","",""
"","","","","","html-keyboard-response","58","2.1.0","105725","pp6shfq8jw6","hard","lynx","908","a","<p>Fluffy blesses you. Good job!</p><p>Press any key to continue.</p>","","",""
"","","","","","html-keyboard-response","59","2.1.0","106422","pp6shfq8jw6","hard","lynx","697","a","<p><strong>TEST BLOCK 2 FINISHED</strong></p><p>Press any key to continue.</p>","","",""
"","","","","","html-keyboard-response","60","2.1.0","106924","pp6shfq8jw6","hard","lynx","null","null","<div style=""font-size:60px;"">+</div>","","",""
"","","","","","html-keyboard-response","61","2.1.0","107427","pp6shfq8jw6","hard","lynx","null","null","<div style=""font-size:60px;"">+</div>","","",""
"","","","","","categorize-image","62","2.1.0","110213","pp6shfq8jw6","hard","lynx","782","a","stimuli/experiment1a/low_A_000.png","low","A","true"
"","","","","","html-keyboard-response","63","2.1.0","110716","pp6shfq8jw6","hard","lynx","null","null","<div style=""font-size:60px;"">+</div>","","",""
"","","","","","html-keyboard-response","64","2.1.0","111220","pp6shfq8jw6","hard","lynx","null","null","<div style=""font-size:60px;"">+</div>","","",""
"","","","","","categorize-image","65","2.1.0","113790","pp6shfq8jw6","hard","lynx","565","b","stimuli/experiment1a/low_B_101.png","low","B","true"
"","","","","","html-keyboard-response","66","2.1.0","114293","pp6shfq8jw6","hard","lynx","null","null","<div style=""font-size:60px;"">+</div>","","",""
"","","","","","html-keyboard-response","67","2.1.0","114796","pp6shfq8jw6","hard","lynx","null","null","<div style=""font-size:60px;"">+</div>","","",""
"","","","","","categorize-image","68","2.1.0","117691","pp6shfq8jw6","hard","lynx","890","a","stimuli/experiment1a/low_A_010.png","low","A","true"
"","","","","","html-keyboard-response","69","2.1.0","118195","pp6shfq8jw6","hard","lynx","null","null","<div style=""font-size:60px;"">+</div>","","",""
"","","","","","html-keyboard-response","70","2.1.0","118698","pp6shfq8jw6","hard","lynx","null","null","<div style=""font-size:60px;"">+</div>","","",""
"","","","","","categorize-image","71","2.1.0","121560","pp6shfq8jw6","hard","lynx","857","b","stimuli/experiment1a/low_A_001.png","low","A","false"
"","","","","","html-keyboard-response","72","2.1.0","122063","pp6shfq8jw6","hard","lynx","null","null","<div style=""font-size:60px;"">+</div>","","",""
"","","","","","categorize-image","73","2.1.0","124642","pp6shfq8jw6","hard","lynx","574","a","stimuli/experiment1a/low_A_001.png","low","A","true"
"","","","","","html-keyboard-response","74","2.1.0","125146","pp6shfq8jw6","hard","lynx","null","null","<div style=""font-size:60px;"">+</div>","","",""
"","","","","","html-keyboard-response","75","2.1.0","125648","pp6shfq8jw6","hard","lynx","null","null","<div style=""font-size:60px;"">+</div>","","",""
"","","","","","categorize-image","76","2.1.0","128360","pp6shfq8jw6","hard","lynx","706","b","stimuli/experiment1a/low_B_111.png","low","B","true"
"","","","","","html-keyboard-response","77","2.1.0","128864","pp6shfq8jw6","hard","lynx","null","null","<div style=""font-size:60px;"">+</div>","","",""
"","","","","","html-keyboard-response","78","2.1.0","129367","pp6shfq8jw6","hard","lynx","null","null","<div style=""font-size:60px;"">+</div>","","",""
"","","","","","categorize-image","79","2.1.0","132042","pp6shfq8jw6","hard","lynx","670","a","stimuli/experiment1a/low_A_000.png","low","A","true"
"","","","","","html-keyboard-response","80","2.1.0","132545","pp6shfq8jw6","hard","lynx","null","null","<div style=""font-size:60px;"">+</div>","","",""
"","","","","","html-keyboard-response","81","2.1.0","133048","pp6shfq8jw6","hard","lynx","null","null","<div style=""font-size:60px;"">+</div>","","",""
"","","","","","categorize-image","82","2.1.0","135708","pp6shfq8jw6","hard","lynx","655","b","stimuli/experiment1a/low_B_110.png","low","B","true"
"","","","","","html-keyboard-response","83","2.1.0","136212","pp6shfq8jw6","hard","lynx","null","null","<div style=""font-size:60px;"">+</div>","","",""
"","","","","","html-keyboard-response","84","2.1.0","136715","pp6shfq8jw6","hard","lynx","null","null","<div style=""font-size:60px;"">+</div>","","",""
"","","","","","categorize-image","85","2.1.0","139468","pp6shfq8jw6","hard","lynx","748","b","stimuli/experiment1a/low_B_111.png","low","B","true"
"","","","","","image-keyboard-response","86","null","140431","pp6shfq8jw6","hard","lynx","960","q","stimuli/experiment_check.webp","","",""
"","","","","","html-keyboard-response","87","2.1.0","141272","pp6shfq8jw6","hard","lynx","840","a","<p>Fluffy blesses you. Good job!</p><p>Press any key to continue.</p>","","",""
"","","","","","html-keyboard-response","88","2.1.0","141895","pp6shfq8jw6","hard","lynx","621","a","<p><strong>TEST BLOCK 3 FINISHED</strong></p><p>Press any key to continue.</p>","","",""
"","","","","","html-keyboard-response","89","2.1.0","142397","pp6shfq8jw6","hard","lynx","null","null","<div style=""font-size:60px;"">+</div>","","",""
"","","","","","html-keyboard-response","90","2.1.0","142900","pp6shfq8jw6","hard","lynx","null","null","<div style=""font-size:60px;"">+</div>","","",""
"","","","","","categorize-image","91","2.1.0","145754","pp6shfq8jw6","hard","lynx","850","a","stimuli/experiment1a/low_B_110.png","low","B","false"
"","","","","","html-keyboard-response","92","2.1.0","146257","pp6shfq8jw6","hard","lynx","null","null","<div style=""font-size:60px;"">+</div>","","",""
"","","","","","categorize-image","93","2.1.0","148710","pp6shfq8jw6","hard","lynx","448","b","stimuli/experiment1a/low_B_110.png","low","B","true"
"","","","","","html-keyboard-response","94","2.1.0","149214","pp6shfq8jw6","hard","lynx","null","null","<div style=""font-size:60px;"">+</div>","","",""
"","","","","","html-keyboard-response","95","2.1.0","149716","pp6shfq8jw6","hard","lynx","null","null","<div style=""font-size:60px;"">+</div>","","",""
"","","","","","categorize-image","96","2.1.0","152194","pp6shfq8jw6","hard","lynx","474","a","stimuli/experiment1a/low_A_000.png","low","A","true"
"","","","","","html-keyboard-response","97","2.1.0","152698","pp6shfq8jw6","hard","lynx","null","null","<div style=""font-size:60px;"">+</div>","","",""
"","","","","","html-keyboard-response","98","2.1.0","153200","pp6shfq8jw6","hard","lynx","null","null","<div style=""font-size:60px;"">+</div>","","",""
"","","","","","categorize-image","99","2.1.0","155764","pp6shfq8jw6","hard","lynx","559","a","stimuli/experiment1a/low_A_010.png","low","A","true"
"","","","","","html-keyboard-response","100","2.1.0","156268","pp6shfq8jw6","hard","lynx","null","null","<div style=""font-size:60px;"">+</div>","","",""
"","","","","","html-keyboard-response","101","2.1.0","156770","pp6shfq8jw6","hard","lynx","null","null","<div style=""font-size:60px;"">+</div>","","",""
"","","","","","categorize-image","102","2.1.0","159398","pp6shfq8jw6","hard","lynx","623","b","stimuli/experiment1a/low_B_111.png","low","B","true"
"","","","","","html-keyboard-response","103","2.1.0","159902","pp6shfq8jw6","hard","lynx","null","null","<div style=""font-size:60px;"">+</div>","","",""
"","","","","","html-keyboard-response","104","2.1.0","160405","pp6shfq8jw6","hard","lynx","null","null","<div style=""font-size:60px;"">+</div>","","",""
"","","","","","categorize-image","105","2.1.0","163576","pp6shfq8jw6","hard","lynx","1167","a","stimuli/experiment1a/low_A_001.png","low","A","true"
"","","","","","html-keyboard-response","106","2.1.0","164080","pp6shfq8jw6","hard","lynx","null","null","<div style=""font-size:60px;"">+</div>","","",""
"","","","","","html-keyboard-response","107","2.1.0","164582","pp6shfq8jw6","hard","lynx","null","null","<div style=""font-size:60px;"">+</div>","","",""
"","","","","","categorize-image","108","2.1.0","167057","pp6shfq8jw6","hard","lynx","470","b","stimuli/experiment1a/low_B_101.png","low","B","true"
"","","","","","html-keyboard-response","109","2.1.0","167560","pp6shfq8jw6","hard","lynx","null","null","<div style=""font-size:60px;"">+</div>","","",""
"","","","","","html-keyboard-response","110","2.1.0","168063","pp6shfq8jw6","hard","lynx","null","null","<div style=""font-size:60px;"">+</div>","","",""
"","","","","","categorize-image","111","2.1.0","171388","pp6shfq8jw6","hard","lynx","1320","a","stimuli/experiment1a/low_A_000.png","low","A","true"
"","","","","","html-keyboard-response","112","2.1.0","171893","pp6shfq8jw6","hard","lynx","null","null","<div style=""font-size:60px;"">+</div>","","",""
"","","","","","html-keyboard-response","113","2.1.0","172395","pp6shfq8jw6","hard","lynx","null","null","<div style=""font-size:60px;"">+</div>","","",""
"","","","","","categorize-image","114","2.1.0","174896","pp6shfq8jw6","hard","lynx","496","b","stimuli/experiment1a/low_B_111.png","low","B","true"
"","","","","","image-keyboard-response","115","null","175852","pp6shfq8jw6","hard","lynx","953","q","stimuli/experiment_check.webp","","",""
"","","","","","html-keyboard-response","116","2.1.0","177855","pp6shfq8jw6","hard","lynx","null","null","<p>Fluffy blesses you. Good job!</p><p>Press any key to continue.</p>","","",""
"","","","","","html-keyboard-response","117","2.1.0","180172","pp6shfq8jw6","hard","lynx","2316","a","<p><strong>TEST BLOCK 4 FINISHED</strong></p><p>Press any key to continue.</p>","","",""
"","","","","","html-keyboard-response","118","2.1.0","180674","pp6shfq8jw6","hard","lynx","null","null","<div style=""font-size:60px;"">+</div>","","",""
"","","","","","html-keyboard-response","119","2.1.0","181176","pp6shfq8jw6","hard","lynx","null","null","<div style=""font-size:60px;"">+</div>","","",""
"","","","","","categorize-image","120","2.1.0","184502","pp6shfq8jw6","hard","lynx","1320","a","stimuli/experiment1a/low_A_000.png","low","A","true"
"","","","","","html-keyboard-response","121","2.1.0","185006","pp6shfq8jw6","hard","lynx","null","null","<div style=""font-size:60px;"">+</div>","","",""
"","","","","","html-keyboard-response","122","2.1.0","185509","pp6shfq8jw6","hard","lynx","null","null","<div style=""font-size:60px;"">+</div>","","",""
"","","","","","categorize-image","123","2.1.0","187997","pp6shfq8jw6","hard","lynx","484","b","stimuli/experiment1a/low_B_111.png","low","B","true"
"","","","","","html-keyboard-response","124","2.1.0","188501","pp6shfq8jw6","hard","lynx","null","null","<div style=""font-size:60px;"">+</div>","","",""
"","","","","","html-keyboard-response","125","2.1.0","189003","pp6shfq8jw6","hard","lynx","null","null","<div style=""font-size:60px;"">+</div>","","",""
"","","","","","categorize-image","126","2.1.0","192582","pp6shfq8jw6","hard","lynx","1575","b","stimuli/experiment1a/low_B_111.png","low","B","true"
"","","","","","html-keyboard-response","127","2.1.0","193086","pp6shfq8jw6","hard","lynx","null","null","<div style=""font-size:60px;"">+</div>","","",""
"","","","","","html-keyboard-response","128","2.1.0","193588","pp6shfq8jw6","hard","lynx","null","null","<div style=""font-size:60px;"">+</div>","","",""
"","","","","","categorize-image","129","2.1.0","196442","pp6shfq8jw6","hard","lynx","850","a","stimuli/experiment1a/low_A_010.png","low","A","true"
"","","","","","html-keyboard-response","130","2.1.0","196946","pp6shfq8jw6","hard","lynx","null","null","<div style=""font-size:60px;"">+</div>","","",""
"","","","","","html-keyboard-response","131","2.1.0","197448","pp6shfq8jw6","hard","lynx","null","null","<div style=""font-size:60px;"">+</div>","","",""
"","","","","","categorize-image","132","2.1.0","200071","pp6shfq8jw6","hard","lynx","618","b","stimuli/experiment1a/low_B_110.png","low","B","true"
"","","","","","html-keyboard-response","133","2.1.0","200575","pp6shfq8jw6","hard","lynx","null","null","<div style=""font-size:60px;"">+</div>","","",""
"","","","","","html-keyboard-response","134","2.1.0","201078","pp6shfq8jw6","hard","lynx","null","null","<div style=""font-size:60px;"">+</div>","","",""
"","","","","","categorize-image","135","2.1.0","203654","pp6shfq8jw6","hard","lynx","572","b","stimuli/experiment1a/low_B_101.png","low","B","true"
"","","","","","html-keyboard-response","136","2.1.0","204158","pp6shfq8jw6","hard","lynx","null","null","<div style=""font-size:60px;"">+</div>","","",""
"","","","","","html-keyboard-response","137","2.1.0","204660","pp6shfq8jw6","hard","lynx","null","null","<div style=""font-size:60px;"">+</div>","","",""
"","","","","","categorize-image","138","2.1.0","207385","pp6shfq8jw6","hard","lynx","719","a","stimuli/experiment1a/low_A_001.png","low","A","true"
"","","","","","html-keyboard-response","139","2.1.0","207889","pp6shfq8jw6","hard","lynx","null","null","<div style=""font-size:60px;"">+</div>","","",""
"","","","","","html-keyboard-response","140","2.1.0","208392","pp6shfq8jw6","hard","lynx","null","null","<div style=""font-size:60px;"">+</div>","","",""
"","","","","","categorize-image","141","2.1.0","210945","pp6shfq8jw6","hard","lynx","548","a","stimuli/experiment1a/low_A_000.png","low","A","true"
"","","","","","image-keyboard-response","142","null","211919","pp6shfq8jw6","hard","lynx","970","q","stimuli/experiment_check.webp","","",""
"","","","","","html-keyboard-response","143","2.1.0","212895","pp6shfq8jw6","hard","lynx","974","a","<p>Fluffy blesses you. Good job!</p><p>Press any key to continue.</p>","","",""
"","","","","","html-keyboard-response","144","2.1.0","213417","pp6shfq8jw6","hard","lynx","522","a","<p><strong>TEST BLOCK 5 FINISHED</strong></p><p>Press any key to continue.</p>","","",""
"","","","","","html-keyboard-response","145","2.1.0","213918","pp6shfq8jw6","hard","lynx","null","null","<div style=""font-size:60px;"">+</div>","","",""
"","","","","","html-keyboard-response","146","2.1.0","214421","pp6shfq8jw6","hard","lynx","null","null","<div style=""font-size:60px;"">+</div>","","",""
"","","","","","categorize-image","147","2.1.0","217508","pp6shfq8jw6","hard","lynx","1082","a","stimuli/experiment1a/low_A_000.png","low","A","true"
"","","","","","html-keyboard-response","148","2.1.0","218012","pp6shfq8jw6","hard","lynx","null","null","<div style=""font-size:60px;"">+</div>","","",""
"","","","","","html-keyboard-response","149","2.1.0","218515","pp6shfq8jw6","hard","lynx","null","null","<div style=""font-size:60px;"">+</div>","","",""
"","","","","","categorize-image","150","2.1.0","221075","pp6shfq8jw6","hard","lynx","557","a","stimuli/experiment1a/low_A_001.png","low","A","true"
"","","","","","html-keyboard-response","151","2.1.0","221577","pp6shfq8jw6","hard","lynx","null","null","<div style=""font-size:60px;"">+</div>","","",""
"","","","","","html-keyboard-response","152","2.1.0","222080","pp6shfq8jw6","hard","lynx","null","null","<div style=""font-size:60px;"">+</div>","","",""
"","","","","","categorize-image","153","2.1.0","224552","pp6shfq8jw6","hard","lynx","466","b","stimuli/experiment1a/low_B_111.png","low","B","true"
"","","","","","html-keyboard-response","154","2.1.0","225056","pp6shfq8jw6","hard","lynx","null","null","<div style=""font-size:60px;"">+</div>","","",""
"","","","","","html-keyboard-response","155","2.1.0","225558","pp6shfq8jw6","hard","lynx","null","null","<div style=""font-size:60px;"">+</div>","","",""
"","","","","","categorize-image","156","2.1.0","228118","pp6shfq8jw6","hard","lynx","556","a","stimuli/experiment1a/low_A_010.png","low","A","true"
"","","","","","html-keyboard-response","157","2.1.0","228622","pp6shfq8jw6","hard","lynx","null","null","<div style=""font-size:60px;"">+</div>","","",""
"","","","","","html-keyboard-response","158","2.1.0","229126","pp6shfq8jw6","hard","lynx","null","null","<div style=""font-size:60px;"">+</div>","","",""
"","","","","","categorize-image","159","2.1.0","231677","pp6shfq8jw6","hard","lynx","545","b","stimuli/experiment1a/low_B_111.png","low","B","true"
"","","","","","html-keyboard-response","160","2.1.0","232180","pp6shfq8jw6","hard","lynx","null","null","<div style=""font-size:60px;"">+</div>","","",""
"","","","","","html-keyboard-response","161","2.1.0","232683","pp6shfq8jw6","hard","lynx","null","null","<div style=""font-size:60px;"">+</div>","","",""
"","","","","","categorize-image","162","2.1.0","235304","pp6shfq8jw6","hard","lynx","616","a","stimuli/experiment1a/low_B_110.png","low","B","false"
"","","","","","html-keyboard-response","163","2.1.0","235807","pp6shfq8jw6","hard","lynx","null","null","<div style=""font-size:60px;"">+</div>","","",""
"","","","","","categorize-image","164","2.1.0","238789","pp6shfq8jw6","hard","lynx","977","b","stimuli/experiment1a/low_B_110.png","low","B","true"
"","","","","","html-keyboard-response","165","2.1.0","239293","pp6shfq8jw6","hard","lynx","null","null","<div style=""font-size:60px;"">+</div>","","",""
"","","","","","html-keyboard-response","166","2.1.0","239795","pp6shfq8jw6","hard","lynx","null","null","<div style=""font-size:60px;"">+</div>","","",""
"","","","","","categorize-image","167","2.1.0","242410","pp6shfq8jw6","hard","lynx","612","a","stimuli/experiment1a/low_A_000.png","low","A","true"
"","","","","","html-keyboard-response","168","2.1.0","242914","pp6shfq8jw6","hard","lynx","null","null","<div style=""font-size:60px;"">+</div>","","",""
"","","","","","html-keyboard-response","169","2.1.0","243416","pp6shfq8jw6","hard","lynx","null","null","<div style=""font-size:60px;"">+</div>","","",""
"","","","","","categorize-image","170","2.1.0","245849","pp6shfq8jw6","hard","lynx","429","b","stimuli/experiment1a/low_B_101.png","low","B","true"
"","","","","","image-keyboard-response","171","null","247050","pp6shfq8jw6","hard","lynx","1200","q","stimuli/experiment_check.webp","","",""
"","","","","","html-keyboard-response","172","2.1.0","248417","pp6shfq8jw6","hard","lynx","1365","b","<p>Fluffy blesses you. Good job!</p><p>Press any key to continue.</p>","","",""
"","","","","","html-keyboard-response","173","2.1.0","248906","pp6shfq8jw6","hard","lynx","487","b","<p><strong>TEST BLOCK 6 FINISHED</strong></p><p>Press any key to continue.</p>","","",""
"","","","","","survey-text","174","2.1.0","306443","pp6shfq8jw6","hard","lynx","57519","{""Language"":""No"",""Art_background"":""No"",""Strategy"":""Yes, looking at the top right color would indicate what category it was in, i know the pattern because i created the experiment""}","","","",""
"","","","","","survey-text","175","2.1.0","347450","pp6shfq8jw6","hard","lynx","41001","{""Issues"":""No"",""Why_experiment"":""Very awesome experiment; whoever made this is very smart"",""Extra_info"":""No""}","","","",""
