"success","timeout","failed_images","failed_audio","failed_video","trial_type","trial_index","plugin_version","time_elapsed","random_id","condition","participant","rt","response","stimulus","nameability","correct_category","correct"
"true","false","[]","[]","[]","preload","0","2.1.0","33","pr5ej2cvmxk","easy","meerkat","","","","","",""
"true","","","","","fullscreen","1","2.1.0","2238","pr5ej2cvmxk","easy","meerkat","1202","","","","",""
"","","","","","survey-text","2","2.1.0","5070","pr5ej2cvmxk","easy","meerkat","2827","{""participant_id"":""meerkat""}","","","",""
"","","","","","html-keyboard-response","3","2.1.0","9128","pr5ej2cvmxk","easy","meerkat","4057"," ","
     <p> Welcome to the experiment! </p>

     <p> In this experiment, you will see a series of images. </p>
     <p> Your task is to categorize each image into one of two categories (A and B) as quickly and accurately as possible. </p>
     <p> You will receive feedback after each response. If you get the category wrong, you will be asked to choose the category again</p>
   ","","",""
"","","","","","html-keyboard-response","4","2.1.0","9630","pr5ej2cvmxk","easy","meerkat","null","null","<div style=""font-size:60px;"">+</div>","","",""
"","","","","","html-keyboard-response","5","2.1.0","10133","pr5ej2cvmxk","easy","meerkat","null","null","<div style=""font-size:60px;"">+</div>","","",""
"","","","","","categorize-image","6","2.1.0","18952","pr5ej2cvmxk","easy","meerkat","6811","a","stimuli/experiment1a/high_A_001.png","high","A","true"
"","","","","","html-keyboard-response","7","2.1.0","19456","pr5ej2cvmxk","easy","meerkat","null","null","<div style=""font-size:60px;"">+</div>","","",""
"","","","","","html-keyboard-response","8","2.1.0","19958","pr5ej2cvmxk","easy","meerkat","null","null","<div style=""font-size:60px;"">+</div>","","",""
"","","","","","categorize-image","9","2.1.0","23018","pr5ej2cvmxk","easy","meerkat","1055","b","stimuli/experiment1a/high_A_000.png","high","A","false"
"","","","","","html-keyboard-response","10","2.1.0","23521","pr5ej2cvmxk","easy","meerkat","null","null","<div style=""font-size:60px;"">+</div>","","",""
"","","","","","categorize-image","11","2.1.0","27443","pr5ej2cvmxk","easy","meerkat","1918","a","stimuli/experiment1a/high_A_000.png","high","A","true"
"","","","","","html-keyboard-response","12","2.1.0","27946","pr5ej2cvmxk","easy","meerkat","null","null","<div style=""font-size:60px;"">+</div>","","",""
"","","","","","html-keyboard-response","13","2.1.0","28449","pr5ej2cvmxk","easy","meerkat","null","null","<div style=""font-size:60px;"">+</div>","","",""
"","","","","","categorize-image","14","2.1.0","31444","pr5ej2cvmxk","easy","meerkat","990","b","stimuli/experiment1a/high_B_111.png","high","B","true"
"","","","","","html-keyboard-response","15","2.1.0","31947","pr5ej2cvmxk","easy","meerkat","null","null","<div style=""font-size:60px;"">+</div>","","",""
"","","","","","html-keyboard-response","16","2.1.0","32449","pr5ej2cvmxk","easy","meerkat","null","null","<div style=""font-size:60px;"">+</div>","","",""
"","","","","","categorize-image","17","2.1.0","35188","pr5ej2cvmxk","easy","meerkat","735","b","stimuli/experiment1a/high_B_111.png","high","B","true"
"","","","","","html-keyboard-response","18","2.1.0","35691","pr5ej2cvmxk","easy","meerkat","null","null","<div style=""font-size:60px;"">+</div>","","",""
"","","","","","html-keyboard-response","19","2.1.0","36193","pr5ej2cvmxk","easy","meerkat","null","null","<div style=""font-size:60px;"">+</div>","","",""
"","","","","","categorize-image","20","2.1.0","39656","pr5ej2cvmxk","easy","meerkat","1459","a","stimuli/experiment1a/high_A_010.png","high","A","true"
"","","","","","html-keyboard-response","21","2.1.0","40159","pr5ej2cvmxk","easy","meerkat","null","null","<div style=""font-size:60px;"">+</div>","","",""
"","","","","","html-keyboard-response","22","2.1.0","40661","pr5ej2cvmxk","easy","meerkat","null","null","<div style=""font-size:60px;"">+</div>","","",""
"","","","","","categorize-image","23","2.1.0","43501","pr5ej2cvmxk","easy","meerkat","836","a","stimuli/experiment1a/high_A_000.png","high","A","true"
"","","","","","html-keyboard-response","24","2.1.0","44004","pr5ej2cvmxk","easy","meerkat","null","null","<div style=""font-size:60px;"">+</div>","","",""
"","","","","","html-keyboard-response","25","2.1.0","44506","pr5ej2cvmxk","easy","meerkat","null","null","<div style=""font-size:60px;"">+</div>","","",""
"","","","","","categorize-image","26","2.1.0","47588","pr5ej2cvmxk","easy","meerkat","1079","b","stimuli/experiment1a/high_B_101.png","high","B","true"
"","","","","","html-keyboard-response","27","2.1.0","48091","pr5ej2cvmxk","easy","meerkat","null","null","<div style=""font-size:60px;"">+</div>","","",""
"","","","","","html-keyboard-response","28","2.1.0","48594","pr5ej2cvmxk","easy","meerkat","null","null","<div style=""font-size:60px;"">+</div>","","",""
"","","","","","categorize-image","29","2.1.0","51426","pr5ej2cvmxk","easy","meerkat","827","a","stimuli/experiment1a/high_B_110.png","high","B","false"
"","","","","","html-keyboard-response","30","2.1.0","51929","pr5ej2cvmxk","easy","meerkat","null","null","<div style=""font-size:60px;"">+</div>","","",""
"","","","","","categorize-image","31","2.1.0","54565","pr5ej2cvmxk","easy","meerkat","632","b","stimuli/experiment1a/high_B_110.png","high","B","true"
"","","","","","image-keyboard-response","32","null","56219","pr5ej2cvmxk","easy","meerkat","1648","q","stimuli/experiment_check.webp","","",""
"","","","","","html-keyboard-response","33","2.1.0","58223","pr5ej2cvmxk","easy","meerkat","null","null","<p>Fluffy blesses you. Good job!</p><p>Press any key to continue.</p>","","",""
"","","","","","html-keyboard-response","34","2.1.0","58228","pr5ej2cvmxk","easy","meerkat","4"," ","<p><strong>TEST BLOCK 1 FINISHED</strong></p><p>Press any key to continue.</p>","","",""
"","","","","","html-keyboard-response","35","2.1.0","58730","pr5ej2cvmxk","easy","meerkat","null","null","<div style=""font-size:60px;"">+</div>","","",""
"","","","","","html-keyboard-response","36","2.1.0","59232","pr5ej2cvmxk","easy","meerkat","null","null","<div style=""font-size:60px;"">+</div>","","",""
"","","","","","categorize-image","37","2.1.0","62350","pr5ej2cvmxk","easy","meerkat","1116","b","stimuli/experiment1a/high_B_101.png","high","B","true"
"","","","","","html-keyboard-response","38","2.1.0","62854","pr5ej2cvmxk","easy","meerkat","null","null","<div style=""font-size:60px;"">+</div>","","",""
"","","","","","html-keyboard-response","39","2.1.0","63356","pr5ej2cvmxk","easy","meerkat","null","null","<div style=""font-size:60px;"">+</div>","","",""
"","","","","","categorize-image","40","2.1.0","66128","pr5ej2cvmxk","easy","meerkat","767","a","stimuli/experiment1a/high_A_000.png","high","A","true"
"","","","","","html-keyboard-response","41","2.1.0","66630","pr5ej2cvmxk","easy","meerkat","null","null","<div style=""font-size:60px;"">+</div>","","",""
"","","","","","html-keyboard-response","42","2.1.0","67133","pr5ej2cvmxk","easy","meerkat","null","null","<div style=""font-size:60px;"">+</div>","","",""
"","","","","","categorize-image","43","2.1.0","69945","pr5ej2cvmxk","easy","meerkat","808","b","stimuli/experiment1a/high_B_111.png","high","B","true"
"","","","","","html-keyboard-response","44","2.1.0","70448","pr5ej2cvmxk","easy","meerkat","null","null","<div style=""font-size:60px;"">+</div>","","",""
"","","","","","html-keyboard-response","45","2.1.0","70950","pr5ej2cvmxk","easy","meerkat","null","null","<div style=""font-size:60px;"">+</div>","","",""
"","","","","","categorize-image","46","2.1.0","74027","pr5ej2cvmxk","easy","meerkat","1073","a","stimuli/experiment1a/high_A_010.png","high","A","true"
"","","","","","html-keyboard-response","47","2.1.0","74530","pr5ej2cvmxk","easy","meerkat","null","null","<div style=""font-size:60px;"">+</div>","","",""
"","","","","","html-keyboard-response","48","2.1.0","75032","pr5ej2cvmxk","easy","meerkat","null","null","<div style=""font-size:60px;"">+</div>","","",""
"","","","","","categorize-image","49","2.1.0","78198","pr5ej2cvmxk","easy","meerkat","1163","a","stimuli/experiment1a/high_A_001.png","high","A","true"
"","","","","","html-keyboard-response","50","2.1.0","78701","pr5ej2cvmxk","easy","meerkat","null","null","<div style=""font-size:60px;"">+</div>","","",""
"","","","","","html-keyboard-response","51","2.1.0","79204","pr5ej2cvmxk","easy","meerkat","null","null","<div style=""font-size:60px;"">+</div>","","",""
"","","","","","categorize-image","52","2.1.0","81703","pr5ej2cvmxk","easy","meerkat","496","b","stimuli/experiment1a/high_B_111.png","high","B","true"
"","","","","","html-keyboard-response","53","2.1.0","82206","pr5ej2cvmxk","easy","meerkat","null","null","<div style=""font-size:60px;"">+</div>","","",""
"","","","","","html-keyboard-response","54","2.1.0","82709","pr5ej2cvmxk","easy","meerkat","null","null","<div style=""font-size:60px;"">+</div>","","",""
"","","","","","categorize-image","55","2.1.0","85251","pr5ej2cvmxk","easy","meerkat","538","a","stimuli/experiment1a/high_A_000.png","high","A","true"
"","","","","","html-keyboard-response","56","2.1.0","85754","pr5ej2cvmxk","easy","meerkat","null","null","<div style=""font-size:60px;"">+</div>","","",""
"","","","","","html-keyboard-response","57","2.1.0","86256","pr5ej2cvmxk","easy","meerkat","null","null","<div style=""font-size:60px;"">+</div>","","",""
"","","","","","categorize-image","58","2.1.0","89312","pr5ej2cvmxk","easy","meerkat","1052","b","stimuli/experiment1a/high_B_110.png","high","B","true"
"","","","","","image-keyboard-response","59","null","90791","pr5ej2cvmxk","easy","meerkat","1478","q","stimuli/experiment_check.webp","","",""
"","","","","","html-keyboard-response","60","2.1.0","91513","pr5ej2cvmxk","easy","meerkat","721"," ","<p>Fluffy blesses you. Good job!</p><p>Press any key to continue.</p>","","",""
"","","","","","html-keyboard-response","61","2.1.0","100817","pr5ej2cvmxk","easy","meerkat","9303"," ","<p><strong>TEST BLOCK 2 FINISHED</strong></p><p>Press any key to continue.</p>","","",""
"","","","","","html-keyboard-response","62","2.1.0","101320","pr5ej2cvmxk","easy","meerkat","null","null","<div style=""font-size:60px;"">+</div>","","",""
"","","","","","html-keyboard-response","63","2.1.0","101822","pr5ej2cvmxk","easy","meerkat","null","null","<div style=""font-size:60px;"">+</div>","","",""
"","","","","","categorize-image","64","2.1.0","105068","pr5ej2cvmxk","easy","meerkat","1242","b","stimuli/experiment1a/high_B_110.png","high","B","true"
"","","","","","html-keyboard-response","65","2.1.0","105570","pr5ej2cvmxk","easy","meerkat","null","null","<div style=""font-size:60px;"">+</div>","","",""
"","","","","","html-keyboard-response","66","2.1.0","106072","pr5ej2cvmxk","easy","meerkat","null","null","<div style=""font-size:60px;"">+</div>","","",""
"","","","","","categorize-image","67","2.1.0","109005","pr5ej2cvmxk","easy","meerkat","928","a","stimuli/experiment1a/high_A_010.png","high","A","true"
"","","","","","html-keyboard-response","68","2.1.0","109509","pr5ej2cvmxk","easy","meerkat","null","null","<div style=""font-size:60px;"">+</div>","","",""
"","","","","","html-keyboard-response","69","2.1.0","110011","pr5ej2cvmxk","easy","meerkat","null","null","<div style=""font-size:60px;"">+</div>","","",""
"","","","","","categorize-image","70","2.1.0","112748","pr5ej2cvmxk","easy","meerkat","734","b","stimuli/experiment1a/high_B_111.png","high","B","true"
"","","","","","html-keyboard-response","71","2.1.0","113251","pr5ej2cvmxk","easy","meerkat","null","null","<div style=""font-size:60px;"">+</div>","","",""
"","","","","","html-keyboard-response","72","2.1.0","113753","pr5ej2cvmxk","easy","meerkat","null","null","<div style=""font-size:60px;"">+</div>","","",""
"","","","","","categorize-image","73","2.1.0","117162","pr5ej2cvmxk","easy","meerkat","1404","b","stimuli/experiment1a/high_B_101.png","high","B","true"
"","","","","","html-keyboard-response","74","2.1.0","117663","pr5ej2cvmxk","easy","meerkat","null","null","<div style=""font-size:60px;"">+</div>","","",""
"","","","","","html-keyboard-response","75","2.1.0","118166","pr5ej2cvmxk","easy","meerkat","null","null","<div style=""font-size:60px;"">+</div>","","",""
"","","","","","categorize-image","76","2.1.0","121223","pr5ej2cvmxk","easy","meerkat","1053","a","stimuli/experiment1a/high_A_000.png","high","A","true"
"","","","","","html-keyboard-response","77","2.1.0","121726","pr5ej2cvmxk","easy","meerkat","null","null","<div style=""font-size:60px;"">+</div>","","",""
"","","","","","html-keyboard-response","78","2.1.0","122227","pr5ej2cvmxk","easy","meerkat","null","null","<div style=""font-size:60px;"">+</div>","","",""
"","","","","","categorize-image","79","2.1.0","125007","pr5ej2cvmxk","easy","meerkat","777","b","stimuli/experiment1a/high_B_111.png","high","B","true"
"","","","","","html-keyboard-response","80","2.1.0","125511","pr5ej2cvmxk","easy","meerkat","null","null","<div style=""font-size:60px;"">+</div>","","",""
"","","","","","html-keyboard-response","81","2.1.0","126013","pr5ej2cvmxk","easy","meerkat","null","null","<div style=""font-size:60px;"">+</div>","","",""
"","","","","","categorize-image","82","2.1.0","128893","pr5ej2cvmxk","easy","meerkat","876","a","stimuli/experiment1a/high_A_000.png","high","A","true"
"","","","","","html-keyboard-response","83","2.1.0","129395","pr5ej2cvmxk","easy","meerkat","null","null","<div style=""font-size:60px;"">+</div>","","",""
"","","","","","html-keyboard-response","84","2.1.0","129897","pr5ej2cvmxk","easy","meerkat","null","null","<div style=""font-size:60px;"">+</div>","","",""
"","","","","","categorize-image","85","2.1.0","133164","pr5ej2cvmxk","easy","meerkat","1264","a","stimuli/experiment1a/high_A_001.png","high","A","true"
"","","","","","image-keyboard-response","86","null","134320","pr5ej2cvmxk","easy","meerkat","1154","q","stimuli/experiment_check.webp","","",""
"","","","","","html-keyboard-response","87","2.1.0","135297","pr5ej2cvmxk","easy","meerkat","976"," ","<p>Fluffy blesses you. Good job!</p><p>Press any key to continue.</p>","","",""
"","","","","","html-keyboard-response","88","2.1.0","136234","pr5ej2cvmxk","easy","meerkat","936"," ","<p><strong>TEST BLOCK 3 FINISHED</strong></p><p>Press any key to continue.</p>","","",""
"","","","","","html-keyboard-response","89","2.1.0","136736","pr5ej2cvmxk","easy","meerkat","null","null","<div style=""font-size:60px;"">+</div>","","",""
"","","","","","html-keyboard-response","90","2.1.0","137239","pr5ej2cvmxk","easy","meerkat","null","null","<div style=""font-size:60px;"">+</div>","","",""
"","","","","","categorize-image","91","2.1.0","140709","pr5ej2cvmxk","easy","meerkat","1467","b","stimuli/experiment1a/high_B_110.png","high","B","true"
"","","","","","html-keyboard-response","92","2.1.0","141213","pr5ej2cvmxk","easy","meerkat","null","null","<div style=""font-size:60px;"">+</div>","","",""
"","","","","","html-keyboard-response","93","2.1.0","141715","pr5ej2cvmxk","easy","meerkat","null","null","<div style=""font-size:60px;"">+</div>","","",""
"","","","","","categorize-image","94","2.1.0","144500","pr5ej2cvmxk","easy","meerkat","782","a","stimuli/experiment1a/high_A_010.png","high","A","true"
"","","","","","html-keyboard-response","95","2.1.0","145004","pr5ej2cvmxk","easy","meerkat","null","null","<div style=""font-size:60px;"">+</div>","","",""
"","","","","","html-keyboard-response","96","2.1.0","145506","pr5ej2cvmxk","easy","meerkat","null","null","<div style=""font-size:60px;"">+</div>","","",""
"","","","","","categorize-image","97","2.1.0","148096","pr5ej2cvmxk","easy","meerkat","586","b","stimuli/experiment1a/high_B_101.png","high","B","true"
"","","","","","html-keyboard-response","98","2.1.0","148599","pr5ej2cvmxk","easy","meerkat","null","null","<div style=""font-size:60px;"">+</div>","","",""
"","","","","","html-keyboard-response","99","2.1.0","149101","pr5ej2cvmxk","easy","meerkat","null","null","<div style=""font-size:60px;"">+</div>","","",""
"","","","","","categorize-image","100","2.1.0","151817","pr5ej2cvmxk","easy","meerkat","713","b","stimuli/experiment1a/high_B_111.png","high","B","true"
"","","","","","html-keyboard-response","101","2.1.0","152320","pr5ej2cvmxk","easy","meerkat","null","null","<div style=""font-size:60px;"">+</div>","","",""
"","","","","","html-keyboard-response","102","2.1.0","152822","pr5ej2cvmxk","easy","meerkat","null","null","<div style=""font-size:60px;"">+</div>","","",""
"","","","","","categorize-image","103","2.1.0","155413","pr5ej2cvmxk","easy","meerkat","587","b","stimuli/experiment1a/high_B_111.png","high","B","true"
"","","","","","html-keyboard-response","104","2.1.0","155916","pr5ej2cvmxk","easy","meerkat","null","null","<div style=""font-size:60px;"">+</div>","","",""
"","","","","","html-keyboard-response","105","2.1.0","156418","pr5ej2cvmxk","easy","meerkat","null","null","<div style=""font-size:60px;"">+</div>","","",""
"","","","","","categorize-image","106","2.1.0","159119","pr5ej2cvmxk","easy","meerkat","698","a","stimuli/experiment1a/high_A_000.png","high","A","true"
"","","","","","html-keyboard-response","107","2.1.0","159623","pr5ej2cvmxk","easy","meerkat","null","null","<div style=""font-size:60px;"">+</div>","","",""
"","","","","","html-keyboard-response","108","2.1.0","160124","pr5ej2cvmxk","easy","meerkat","null","null","<div style=""font-size:60px;"">+</div>","","",""
"","","","","","categorize-image","109","2.1.0","162689","pr5ej2cvmxk","easy","meerkat","560","a","stimuli/experiment1a/high_A_000.png","high","A","true"
"","","","","","html-keyboard-response","110","2.1.0","163191","pr5ej2cvmxk","easy","meerkat","null","null","<div style=""font-size:60px;"">+</div>","","",""
"","","","","","html-keyboard-response","111","2.1.0","163694","pr5ej2cvmxk","easy","meerkat","null","null","<div style=""font-size:60px;"">+</div>","","",""
"","","","","","categorize-image","112","2.1.0","166882","pr5ej2cvmxk","easy","meerkat","1185","a","stimuli/experiment1a/high_A_001.png","high","A","true"
"","","","","","image-keyboard-response","113","null","168146","pr5ej2cvmxk","easy","meerkat","1261","q","stimuli/experiment_check.webp","","",""
"","","","","","html-keyboard-response","114","2.1.0","169079","pr5ej2cvmxk","easy","meerkat","931"," ","<p>Fluffy blesses you. Good job!</p><p>Press any key to continue.</p>","","",""
"","","","","","html-keyboard-response","115","2.1.0","169861","pr5ej2cvmxk","easy","meerkat","781"," ","<p><strong>TEST BLOCK 4 FINISHED</strong></p><p>Press any key to continue.</p>","","",""
"","","","","","html-keyboard-response","116","2.1.0","170363","pr5ej2cvmxk","easy","meerkat","null","null","<div style=""font-size:60px;"">+</div>","","",""
"","","","","","html-keyboard-response","117","2.1.0","170865","pr5ej2cvmxk","easy","meerkat","null","null","<div style=""font-size:60px;"">+</div>","","",""
"","","","","","categorize-image","118","2.1.0","173792","pr5ej2cvmxk","easy","meerkat","923","a","stimuli/experiment1a/high_A_000.png","high","A","true"
"","","","","","html-keyboard-response","119","2.1.0","174295","pr5ej2cvmxk","easy","meerkat","null","null","<div style=""font-size:60px;"">+</div>","","",""
"","","","","","html-keyboard-response","120","2.1.0","174797","pr5ej2cvmxk","easy","meerkat","null","null","<div style=""font-size:60px;"">+</div>","","",""
"","","","","","categorize-image","121","2.1.0","177378","pr5ej2cvmxk","easy","meerkat","577","b","stimuli/experiment1a/high_B_101.png","high","B","true"
"","","","","","html-keyboard-response","122","2.1.0","177882","pr5ej2cvmxk","easy","meerkat","null","null","<div style=""font-size:60px;"">+</div>","","",""
"","","","","","html-keyboard-response","123","2.1.0","178384","pr5ej2cvmxk","easy","meerkat","null","null","<div style=""font-size:60px;"">+</div>","","",""
"","","","","","categorize-image","124","2.1.0","180975","pr5ej2cvmxk","easy","meerkat","589","a","stimuli/experiment1a/high_A_000.png","high","A","true"
"","","","","","html-keyboard-response","125","2.1.0","181477","pr5ej2cvmxk","easy","meerkat","null","null","<div style=""font-size:60px;"">+</div>","","",""
"","","","","","html-keyboard-response","126","2.1.0","181978","pr5ej2cvmxk","easy","meerkat","null","null","<div style=""font-size:60px;"">+</div>","","",""
"","","","","","categorize-image","127","2.1.0","185490","pr5ej2cvmxk","easy","meerkat","1509","a","stimuli/experiment1a/high_A_010.png","high","A","true"
"","","","","","html-keyboard-response","128","2.1.0","185993","pr5ej2cvmxk","easy","meerkat","null","null","<div style=""font-size:60px;"">+</div>","","",""
"","","","","","html-keyboard-response","129","2.1.0","186495","pr5ej2cvmxk","easy","meerkat","null","null","<div style=""font-size:60px;"">+</div>","","",""
"","","","","","categorize-image","130","2.1.0","189150","pr5ej2cvmxk","easy","meerkat","652","b","stimuli/experiment1a/high_B_111.png","high","B","true"
"","","","","","html-keyboard-response","131","2.1.0","189654","pr5ej2cvmxk","easy","meerkat","null","null","<div style=""font-size:60px;"">+</div>","","",""
"","","","","","html-keyboard-response","132","2.1.0","190156","pr5ej2cvmxk","easy","meerkat","null","null","<div style=""font-size:60px;"">+</div>","","",""
"","","","","","categorize-image","133","2.1.0","192649","pr5ej2cvmxk","easy","meerkat","489","b","stimuli/experiment1a/high_B_111.png","high","B","true"
"","","","","","html-keyboard-response","134","2.1.0","193152","pr5ej2cvmxk","easy","meerkat","null","null","<div style=""font-size:60px;"">+</div>","","",""
"","","","","","html-keyboard-response","135","2.1.0","193654","pr5ej2cvmxk","easy","meerkat","null","null","<div style=""font-size:60px;"">+</div>","","",""
"","","","","","categorize-image","136","2.1.0","197186","pr5ej2cvmxk","easy","meerkat","1528","b","stimuli/experiment1a/high_B_110.png","high","B","true"
"","","","","","html-keyboard-response","137","2.1.0","197689","pr5ej2cvmxk","easy","meerkat","null","null","<div style=""font-size:60px;"">+</div>","","",""
"","","","","","html-keyboard-response","138","2.1.0","198191","pr5ej2cvmxk","easy","meerkat","null","null","<div style=""font-size:60px;"">+</div>","","",""
"","","","","","categorize-image","139","2.1.0","201567","pr5ej2cvmxk","easy","meerkat","1373","a","stimuli/experiment1a/high_A_001.png","high","A","true"
"","","","","","image-keyboard-response","140","null","202606","pr5ej2cvmxk","easy","meerkat","1036","q","stimuli/experiment_check.webp","","",""
"","","","","","html-keyboard-response","141","2.1.0","203106","pr5ej2cvmxk","easy","meerkat","499"," ","<p>Fluffy blesses you. Good job!</p><p>Press any key to continue.</p>","","",""
"","","","","","html-keyboard-response","142","2.1.0","206647","pr5ej2cvmxk","easy","meerkat","3540"," ","<p><strong>TEST BLOCK 5 FINISHED</strong></p><p>Press any key to continue.</p>","","",""
"","","","","","html-keyboard-response","143","2.1.0","207149","pr5ej2cvmxk","easy","meerkat","null","null","<div style=""font-size:60px;"">+</div>","","",""
"","","","","","html-keyboard-response","144","2.1.0","207651","pr5ej2cvmxk","easy","meerkat","null","null","<div style=""font-size:60px;"">+</div>","","",""
"","","","","","categorize-image","145","2.1.0","210284","pr5ej2cvmxk","easy","meerkat","629","a","stimuli/experiment1a/high_A_000.png","high","A","true"
"","","","","","html-keyboard-response","146","2.1.0","210787","pr5ej2cvmxk","easy","meerkat","null","null","<div style=""font-size:60px;"">+</div>","","",""
"","","","","","html-keyboard-response","147","2.1.0","211289","pr5ej2cvmxk","easy","meerkat","null","null","<div style=""font-size:60px;"">+</div>","","",""
"","","","","","categorize-image","148","2.1.0","214124","pr5ej2cvmxk","easy","meerkat","832","a","stimuli/experiment1a/high_A_001.png","high","A","true"
"","","","","","html-keyboard-response","149","2.1.0","214627","pr5ej2cvmxk","easy","meerkat","null","null","<div style=""font-size:60px;"">+</div>","","",""
"","","","","","html-keyboard-response","150","2.1.0","215129","pr5ej2cvmxk","easy","meerkat","null","null","<div style=""font-size:60px;"">+</div>","","",""
"","","","","","categorize-image","151","2.1.0","217739","pr5ej2cvmxk","easy","meerkat","608","b","stimuli/experiment1a/high_B_111.png","high","B","true"
"","","","","","html-keyboard-response","152","2.1.0","218242","pr5ej2cvmxk","easy","meerkat","null","null","<div style=""font-size:60px;"">+</div>","","",""
"","","","","","html-keyboard-response","153","2.1.0","218743","pr5ej2cvmxk","easy","meerkat","null","null","<div style=""font-size:60px;"">+</div>","","",""
"","","","","","categorize-image","154","2.1.0","221265","pr5ej2cvmxk","easy","meerkat","518","a","stimuli/experiment1a/high_A_000.png","high","A","true"
"","","","","","html-keyboard-response","155","2.1.0","221767","pr5ej2cvmxk","easy","meerkat","null","null","<div style=""font-size:60px;"">+</div>","","",""
"","","","","","html-keyboard-response","156","2.1.0","222270","pr5ej2cvmxk","easy","meerkat","null","null","<div style=""font-size:60px;"">+</div>","","",""
"","","","","","categorize-image","157","2.1.0","225113","pr5ej2cvmxk","easy","meerkat","839","a","stimuli/experiment1a/high_A_010.png","high","A","true"
"","","","","","html-keyboard-response","158","2.1.0","225616","pr5ej2cvmxk","easy","meerkat","null","null","<div style=""font-size:60px;"">+</div>","","",""
"","","","","","html-keyboard-response","159","2.1.0","226118","pr5ej2cvmxk","easy","meerkat","null","null","<div style=""font-size:60px;"">+</div>","","",""
"","","","","","categorize-image","160","2.1.0","228889","pr5ej2cvmxk","easy","meerkat","767","b","stimuli/experiment1a/high_B_111.png","high","B","true"
"","","","","","html-keyboard-response","161","2.1.0","229392","pr5ej2cvmxk","easy","meerkat","null","null","<div style=""font-size:60px;"">+</div>","","",""
"","","","","","html-keyboard-response","162","2.1.0","229894","pr5ej2cvmxk","easy","meerkat","null","null","<div style=""font-size:60px;"">+</div>","","",""
"","","","","","categorize-image","163","2.1.0","233250","pr5ej2cvmxk","easy","meerkat","1352","b","stimuli/experiment1a/high_B_110.png","high","B","true"
"","","","","","html-keyboard-response","164","2.1.0","233754","pr5ej2cvmxk","easy","meerkat","null","null","<div style=""font-size:60px;"">+</div>","","",""
"","","","","","html-keyboard-response","165","2.1.0","234256","pr5ej2cvmxk","easy","meerkat","null","null","<div style=""font-size:60px;"">+</div>","","",""
"","","","","","categorize-image","166","2.1.0","237487","pr5ej2cvmxk","easy","meerkat","1227","a","stimuli/experiment1a/high_B_101.png","high","B","false"
"","","","","","html-keyboard-response","167","2.1.0","237990","pr5ej2cvmxk","easy","meerkat","null","null","<div style=""font-size:60px;"">+</div>","","",""
"","","","","","categorize-image","168","2.1.0","240722","pr5ej2cvmxk","easy","meerkat","729","b","stimuli/experiment1a/high_B_101.png","high","B","true"
"","","","","","image-keyboard-response","169","null","241681","pr5ej2cvmxk","easy","meerkat","955","q","stimuli/experiment_check.webp","","",""
"","","","","","html-keyboard-response","170","2.1.0","242741","pr5ej2cvmxk","easy","meerkat","1059"," ","<p>Fluffy blesses you. Good job!</p><p>Press any key to continue.</p>","","",""
"","","","","","html-keyboard-response","171","2.1.0","243463","pr5ej2cvmxk","easy","meerkat","722"," ","<p><strong>TEST BLOCK 6 FINISHED</strong></p><p>Press any key to continue.</p>","","",""
"","","","","","survey-text","172","2.1.0","310058","pr5ej2cvmxk","easy","meerkat","66580","{""Language"":""yes"",""Art_background"":""yes; pencils, acrylics, watercolor, "",""Strategy"":""darker, cooler = category A; warmer, brighter = category B""}","","","",""
"","","","","","survey-text","173","2.1.0","319522","pr5ej2cvmxk","easy","meerkat","9461","{""Issues"":""none"",""Why_experiment"":""color association?"",""Extra_info"":""none""}","","","",""
