"success","timeout","failed_images","failed_audio","failed_video","trial_type","trial_index","plugin_version","time_elapsed","random_id","condition","participant","rt","response","stimulus","nameability","correct_category","correct"
"true","false","[]","[]","[]","preload","0","2.1.0","105","prz5p18pff9","easy","pony","","","","","",""
"true","","","","","fullscreen","1","2.1.0","33137","prz5p18pff9","easy","pony","32031","","","","",""
"","","","","","survey-text","2","2.1.0","37069","prz5p18pff9","easy","pony","3916","{""participant_id"":""pony""}","","","",""
"","","","","","html-keyboard-response","3","2.1.0","46003","prz5p18pff9","easy","pony","8931","n","
     <p> Welcome to the experiment! </p>

     <p> In this experiment, you will see a series of images. </p>
     <p> Your task is to categorize each image into one of two categories (A and B) as quickly and accurately as possible. </p>
     <p> You will receive feedback after each response. If you get the category wrong, you will be asked to choose the category again</p>
   ","","",""
"","","","","","html-keyboard-response","4","2.1.0","46505","prz5p18pff9","easy","pony","null","null","<div style=""font-size:60px;"">+</div>","","",""
"","","","","","html-keyboard-response","5","2.1.0","47007","prz5p18pff9","easy","pony","null","null","<div style=""font-size:60px;"">+</div>","","",""
"","","","","","categorize-image","6","2.1.0","53092","prz5p18pff9","easy","pony","4081","a","stimuli/experiment1a/high_A_000.png","high","A","true"
"","","","","","html-keyboard-response","7","2.1.0","53596","prz5p18pff9","easy","pony","null","null","<div style=""font-size:60px;"">+</div>","","",""
"","","","","","html-keyboard-response","8","2.1.0","54098","prz5p18pff9","easy","pony","null","null","<div style=""font-size:60px;"">+</div>","","",""
"","","","","","categorize-image","9","2.1.0","57356","prz5p18pff9","easy","pony","1255","b","stimuli/experiment1a/high_A_010.png","high","A","false"
"","","","","","html-keyboard-response","10","2.1.0","57858","prz5p18pff9","easy","pony","null","null","<div style=""font-size:60px;"">+</div>","","",""
"","","","","","categorize-image","11","2.1.0","60523","prz5p18pff9","easy","pony","662","a","stimuli/experiment1a/high_A_010.png","high","A","true"
"","","","","","html-keyboard-response","12","2.1.0","61026","prz5p18pff9","easy","pony","null","null","<div style=""font-size:60px;"">+</div>","","",""
"","","","","","html-keyboard-response","13","2.1.0","61528","prz5p18pff9","easy","pony","null","null","<div style=""font-size:60px;"">+</div>","","",""
"","","","","","categorize-image","14","2.1.0","64374","prz5p18pff9","easy","pony","844","b","stimuli/experiment1a/high_A_001.png","high","A","false"
"","","","","","html-keyboard-response","15","2.1.0","64876","prz5p18pff9","easy","pony","null","null","<div style=""font-size:60px;"">+</div>","","",""
"","","","","","categorize-image","16","2.1.0","67461","prz5p18pff9","easy","pony","583","a","stimuli/experiment1a/high_A_001.png","high","A","true"
"","","","","","html-keyboard-response","17","2.1.0","67964","prz5p18pff9","easy","pony","null","null","<div style=""font-size:60px;"">+</div>","","",""
"","","","","","html-keyboard-response","18","2.1.0","68466","prz5p18pff9","easy","pony","null","null","<div style=""font-size:60px;"">+</div>","","",""
"","","","","","categorize-image","19","2.1.0","71062","prz5p18pff9","easy","pony","594","a","stimuli/experiment1a/high_B_101.png","high","B","false"
"","","","","","html-keyboard-response","20","2.1.0","71565","prz5p18pff9","easy","pony","null","null","<div style=""font-size:60px;"">+</div>","","",""
"","","","","","categorize-image","21","2.1.0","73946","prz5p18pff9","easy","pony","378","b","stimuli/experiment1a/high_B_101.png","high","B","true"
"","","","","","html-keyboard-response","22","2.1.0","74448","prz5p18pff9","easy","pony","null","null","<div style=""font-size:60px;"">+</div>","","",""
"","","","","","html-keyboard-response","23","2.1.0","74951","prz5p18pff9","easy","pony","null","null","<div style=""font-size:60px;"">+</div>","","",""
"","","","","","categorize-image","24","2.1.0","77650","prz5p18pff9","easy","pony","696","b","stimuli/experiment1a/high_B_111.png","high","B","true"
"","","","","","html-keyboard-response","25","2.1.0","78153","prz5p18pff9","easy","pony","null","null","<div style=""font-size:60px;"">+</div>","","",""
"","","","","","html-keyboard-response","26","2.1.0","78654","prz5p18pff9","easy","pony","null","null","<div style=""font-size:60px;"">+</div>","","",""
"","","","","","categorize-image","27","2.1.0","81109","prz5p18pff9","easy","pony","451","a","stimuli/experiment1a/high_A_000.png","high","A","true"
"","","","","","html-keyboard-response","28","2.1.0","81610","prz5p18pff9","easy","pony","null","null","<div style=""font-size:60px;"">+</div>","","",""
"","","","","","html-keyboard-response","29","2.1.0","82113","prz5p18pff9","easy","pony","null","null","<div style=""font-size:60px;"">+</div>","","",""
"","","","","","categorize-image","30","2.1.0","84693","prz5p18pff9","easy","pony","576","b","stimuli/experiment1a/high_B_111.png","high","B","true"
"","","","","","html-keyboard-response","31","2.1.0","85196","prz5p18pff9","easy","pony","null","null","<div style=""font-size:60px;"">+</div>","","",""
"","","","","","html-keyboard-response","32","2.1.0","85698","prz5p18pff9","easy","pony","null","null","<div style=""font-size:60px;"">+</div>","","",""
"","","","","","categorize-image","33","2.1.0","88059","prz5p18pff9","easy","pony","358","b","stimuli/experiment1a/high_B_110.png","high","B","true"
"","","","","","image-keyboard-response","34","null","88982","prz5p18pff9","easy","pony","900","b","stimuli/experiment_check.webp","","",""
"","","","","","html-keyboard-response","35","2.1.0","90984","prz5p18pff9","easy","pony","null","null","<p>Fluffy is angered. Make sure to focus!</p><p>Press any key to continue.</p>","","",""
"","","","","","html-keyboard-response","36","2.1.0","91025","prz5p18pff9","easy","pony","39"," ","<p><strong>TEST BLOCK 1 FINISHED</strong></p><p>Press any key to continue.</p>","","",""
"","","","","","html-keyboard-response","37","2.1.0","91526","prz5p18pff9","easy","pony","null","null","<div style=""font-size:60px;"">+</div>","","",""
"","","","","","html-keyboard-response","38","2.1.0","92027","prz5p18pff9","easy","pony","null","null","<div style=""font-size:60px;"">+</div>","","",""
"","","","","","categorize-image","39","2.1.0","96674","prz5p18pff9","easy","pony","2644","b","stimuli/experiment1a/high_B_110.png","high","B","true"
"","","","","","html-keyboard-response","40","2.1.0","97177","prz5p18pff9","easy","pony","null","null","<div style=""font-size:60px;"">+</div>","","",""
"","","","","","html-keyboard-response","41","2.1.0","97680","prz5p18pff9","easy","pony","null","null","<div style=""font-size:60px;"">+</div>","","",""
"","","","","","categorize-image","42","2.1.0","100333","prz5p18pff9","easy","pony","649","b","stimuli/experiment1a/high_B_111.png","high","B","true"
"","","","","","html-keyboard-response","43","2.1.0","100836","prz5p18pff9","easy","pony","null","null","<div style=""font-size:60px;"">+</div>","","",""
"","","","","","html-keyboard-response","44","2.1.0","101338","prz5p18pff9","easy","pony","null","null","<div style=""font-size:60px;"">+</div>","","",""
"","","","","","categorize-image","45","2.1.0","103867","prz5p18pff9","easy","pony","527","a","stimuli/experiment1a/high_A_000.png","high","A","true"
"","","","","","html-keyboard-response","46","2.1.0","104368","prz5p18pff9","easy","pony","null","null","<div style=""font-size:60px;"">+</div>","","",""
"","","","","","html-keyboard-response","47","2.1.0","104870","prz5p18pff9","easy","pony","null","null","<div style=""font-size:60px;"">+</div>","","",""
"","","","","","categorize-image","48","2.1.0","107680","prz5p18pff9","easy","pony","807","b","stimuli/experiment1a/high_B_101.png","high","B","true"
"","","","","","html-keyboard-response","49","2.1.0","108182","prz5p18pff9","easy","pony","null","null","<div style=""font-size:60px;"">+</div>","","",""
"","","","","","html-keyboard-response","50","2.1.0","108684","prz5p18pff9","easy","pony","null","null","<div style=""font-size:60px;"">+</div>","","",""
"","","","","","categorize-image","51","2.1.0","111678","prz5p18pff9","easy","pony","990","b","stimuli/experiment1a/high_A_000.png","high","A","false"
"","","","","","html-keyboard-response","52","2.1.0","112179","prz5p18pff9","easy","pony","null","null","<div style=""font-size:60px;"">+</div>","","",""
"","","","","","categorize-image","53","2.1.0","114542","prz5p18pff9","easy","pony","361","a","stimuli/experiment1a/high_A_000.png","high","A","true"
"","","","","","html-keyboard-response","54","2.1.0","115044","prz5p18pff9","easy","pony","null","null","<div style=""font-size:60px;"">+</div>","","",""
"","","","","","html-keyboard-response","55","2.1.0","115547","prz5p18pff9","easy","pony","null","null","<div style=""font-size:60px;"">+</div>","","",""
"","","","","","categorize-image","56","2.1.0","118053","prz5p18pff9","easy","pony","502","b","stimuli/experiment1a/high_B_111.png","high","B","true"
"","","","","","html-keyboard-response","57","2.1.0","118556","prz5p18pff9","easy","pony","null","null","<div style=""font-size:60px;"">+</div>","","",""
"","","","","","html-keyboard-response","58","2.1.0","119057","prz5p18pff9","easy","pony","null","null","<div style=""font-size:60px;"">+</div>","","",""
"","","","","","categorize-image","59","2.1.0","123322","prz5p18pff9","easy","pony","2261","b","stimuli/experiment1a/high_A_001.png","high","A","false"
"","","","","","html-keyboard-response","60","2.1.0","123825","prz5p18pff9","easy","pony","null","null","<div style=""font-size:60px;"">+</div>","","",""
"","","","","","categorize-image","61","2.1.0","125993","prz5p18pff9","easy","pony","166","a","stimuli/experiment1a/high_A_001.png","high","A","true"
"","","","","","html-keyboard-response","62","2.1.0","126496","prz5p18pff9","easy","pony","null","null","<div style=""font-size:60px;"">+</div>","","",""
"","","","","","html-keyboard-response","63","2.1.0","126998","prz5p18pff9","easy","pony","null","null","<div style=""font-size:60px;"">+</div>","","",""
"","","","","","categorize-image","64","2.1.0","129526","prz5p18pff9","easy","pony","527","b","stimuli/experiment1a/high_A_010.png","high","A","false"
"","","","","","html-keyboard-response","65","2.1.0","130029","prz5p18pff9","easy","pony","null","null","<div style=""font-size:60px;"">+</div>","","",""
"","","","","","categorize-image","66","2.1.0","132257","prz5p18pff9","easy","pony","225","a","stimuli/experiment1a/high_A_010.png","high","A","true"
"","","","","","image-keyboard-response","67","null","134166","prz5p18pff9","easy","pony","1907","q","stimuli/experiment_check.webp","","",""
"","","","","","html-keyboard-response","68","2.1.0","136168","prz5p18pff9","easy","pony","null","null","<p>Fluffy blesses you. Good job!</p><p>Press any key to continue.</p>","","",""
"","","","","","html-keyboard-response","69","2.1.0","138869","prz5p18pff9","easy","pony","2700","a","<p><strong>TEST BLOCK 2 FINISHED</strong></p><p>Press any key to continue.</p>","","",""
"","","","","","html-keyboard-response","70","2.1.0","139370","prz5p18pff9","easy","pony","null","null","<div style=""font-size:60px;"">+</div>","","",""
"","","","","","html-keyboard-response","71","2.1.0","139872","prz5p18pff9","easy","pony","null","null","<div style=""font-size:60px;"">+</div>","","",""
"","","","","","categorize-image","72","2.1.0","142655","prz5p18pff9","easy","pony","781","b","stimuli/experiment1a/high_B_111.png","high","B","true"
"","","","","","html-keyboard-response","73","2.1.0","143158","prz5p18pff9","easy","pony","null","null","<div style=""font-size:60px;"">+</div>","","",""
"","","","","","html-keyboard-response","74","2.1.0","143659","prz5p18pff9","easy","pony","null","null","<div style=""font-size:60px;"">+</div>","","",""
"","","","","","categorize-image","75","2.1.0","146113","prz5p18pff9","easy","pony","450","a","stimuli/experiment1a/high_B_110.png","high","B","false"
"","","","","","html-keyboard-response","76","2.1.0","146614","prz5p18pff9","easy","pony","null","null","<div style=""font-size:60px;"">+</div>","","",""
"","","","","","categorize-image","77","2.1.0","149167","prz5p18pff9","easy","pony","550","b","stimuli/experiment1a/high_B_110.png","high","B","true"
"","","","","","html-keyboard-response","78","2.1.0","149669","prz5p18pff9","easy","pony","null","null","<div style=""font-size:60px;"">+</div>","","",""
"","","","","","html-keyboard-response","79","2.1.0","150171","prz5p18pff9","easy","pony","null","null","<div style=""font-size:60px;"">+</div>","","",""
"","","","","","categorize-image","80","2.1.0","153075","prz5p18pff9","easy","pony","900","b","stimuli/experiment1a/high_A_001.png","high","A","false"
"","","","","","html-keyboard-response","81","2.1.0","153577","prz5p18pff9","easy","pony","null","null","<div style=""font-size:60px;"">+</div>","","",""
"","","","","","categorize-image","82","2.1.0","155975","prz5p18pff9","easy","pony","395","a","stimuli/experiment1a/high_A_001.png","high","A","true"
"","","","","","html-keyboard-response","83","2.1.0","156477","prz5p18pff9","easy","pony","null","null","<div style=""font-size:60px;"">+</div>","","",""
"","","","","","html-keyboard-response","84","2.1.0","156979","prz5p18pff9","easy","pony","null","null","<div style=""font-size:60px;"">+</div>","","",""
"","","","","","categorize-image","85","2.1.0","159471","prz5p18pff9","easy","pony","490","a","stimuli/experiment1a/high_A_000.png","high","A","true"
"","","","","","html-keyboard-response","86","2.1.0","159973","prz5p18pff9","easy","pony","null","null","<div style=""font-size:60px;"">+</div>","","",""
"","","","","","html-keyboard-response","87","2.1.0","160476","prz5p18pff9","easy","pony","null","null","<div style=""font-size:60px;"">+</div>","","",""
"","","","","","categorize-image","88","2.1.0","163079","prz5p18pff9","easy","pony","600","b","stimuli/experiment1a/high_B_101.png","high","B","true"
"","","","","","html-keyboard-response","89","2.1.0","163582","prz5p18pff9","easy","pony","null","null","<div style=""font-size:60px;"">+</div>","","",""
"","","","","","html-keyboard-response","90","2.1.0","164084","prz5p18pff9","easy","pony","null","null","<div style=""font-size:60px;"">+</div>","","",""
"","","","","","categorize-image","91","2.1.0","167943","prz5p18pff9","easy","pony","1856","a","stimuli/experiment1a/high_A_000.png","high","A","true"
"","","","","","html-keyboard-response","92","2.1.0","168445","prz5p18pff9","easy","pony","null","null","<div style=""font-size:60px;"">+</div>","","",""
"","","","","","html-keyboard-response","93","2.1.0","168946","prz5p18pff9","easy","pony","null","null","<div style=""font-size:60px;"">+</div>","","",""
"","","","","","categorize-image","94","2.1.0","171984","prz5p18pff9","easy","pony","1034","a","stimuli/experiment1a/high_A_010.png","high","A","true"
"","","","","","html-keyboard-response","95","2.1.0","172487","prz5p18pff9","easy","pony","null","null","<div style=""font-size:60px;"">+</div>","","",""
"","","","","","html-keyboard-response","96","2.1.0","172988","prz5p18pff9","easy","pony","null","null","<div style=""font-size:60px;"">+</div>","","",""
"","","","","","categorize-image","97","2.1.0","176421","prz5p18pff9","easy","pony","1429","b","stimuli/experiment1a/high_B_111.png","high","B","true"
"","","","","","image-keyboard-response","98","null","177739","prz5p18pff9","easy","pony","1316","q","stimuli/experiment_check.webp","","",""
"","","","","","html-keyboard-response","99","2.1.0","179741","prz5p18pff9","easy","pony","null","null","<p>Fluffy blesses you. Good job!</p><p>Press any key to continue.</p>","","",""
"","","","","","html-keyboard-response","100","2.1.0","179887","prz5p18pff9","easy","pony","144"," ","<p><strong>TEST BLOCK 3 FINISHED</strong></p><p>Press any key to continue.</p>","","",""
"","","","","","html-keyboard-response","101","2.1.0","180388","prz5p18pff9","easy","pony","null","null","<div style=""font-size:60px;"">+</div>","","",""
"","","","","","html-keyboard-response","102","2.1.0","180890","prz5p18pff9","easy","pony","null","null","<div style=""font-size:60px;"">+</div>","","",""
"","","","","","categorize-image","103","2.1.0","183720","prz5p18pff9","easy","pony","827","a","stimuli/experiment1a/high_A_000.png","high","A","true"
"","","","","","html-keyboard-response","104","2.1.0","184222","prz5p18pff9","easy","pony","null","null","<div style=""font-size:60px;"">+</div>","","",""
"","","","","","html-keyboard-response","105","2.1.0","184724","prz5p18pff9","easy","pony","null","null","<div style=""font-size:60px;"">+</div>","","",""
"","","","","","categorize-image","106","2.1.0","188977","prz5p18pff9","easy","pony","2250","a","stimuli/experiment1a/high_B_110.png","high","B","false"
"","","","","","html-keyboard-response","107","2.1.0","189478","prz5p18pff9","easy","pony","null","null","<div style=""font-size:60px;"">+</div>","","",""
"","","","","","categorize-image","108","2.1.0","191789","prz5p18pff9","easy","pony","308","b","stimuli/experiment1a/high_B_110.png","high","B","true"
"","","","","","html-keyboard-response","109","2.1.0","192290","prz5p18pff9","easy","pony","null","null","<div style=""font-size:60px;"">+</div>","","",""
"","","","","","html-keyboard-response","110","2.1.0","192791","prz5p18pff9","easy","pony","null","null","<div style=""font-size:60px;"">+</div>","","",""
"","","","","","categorize-image","111","2.1.0","195701","prz5p18pff9","easy","pony","906","b","stimuli/experiment1a/high_A_001.png","high","A","false"
"","","","","","html-keyboard-response","112","2.1.0","196203","prz5p18pff9","easy","pony","null","null","<div style=""font-size:60px;"">+</div>","","",""
"","","","","","categorize-image","113","2.1.0","198237","prz5p18pff9","easy","pony","32","a","stimuli/experiment1a/high_A_001.png","high","A","true"
"","","","","","html-keyboard-response","114","2.1.0","198738","prz5p18pff9","easy","pony","null","null","<div style=""font-size:60px;"">+</div>","","",""
"","","","","","html-keyboard-response","115","2.1.0","199241","prz5p18pff9","easy","pony","null","null","<div style=""font-size:60px;"">+</div>","","",""
"","","","","","categorize-image","116","2.1.0","201975","prz5p18pff9","easy","pony","733","b","stimuli/experiment1a/high_B_101.png","high","B","true"
"","","","","","html-keyboard-response","117","2.1.0","202477","prz5p18pff9","easy","pony","null","null","<div style=""font-size:60px;"">+</div>","","",""
"","","","","","html-keyboard-response","118","2.1.0","202980","prz5p18pff9","easy","pony","null","null","<div style=""font-size:60px;"">+</div>","","",""
"","","","","","categorize-image","119","2.1.0","206260","prz5p18pff9","easy","pony","1278","a","stimuli/experiment1a/high_A_010.png","high","A","true"
"","","","","","html-keyboard-response","120","2.1.0","206762","prz5p18pff9","easy","pony","null","null","<div style=""font-size:60px;"">+</div>","","",""
"","","","","","html-keyboard-response","121","2.1.0","207264","prz5p18pff9","easy","pony","null","null","<div style=""font-size:60px;"">+</div>","","",""
"","","","","","categorize-image","122","2.1.0","210405","prz5p18pff9","easy","pony","1137","b","stimuli/experiment1a/high_B_111.png","high","B","true"
"","","","","","html-keyboard-response","123","2.1.0","210907","prz5p18pff9","easy","pony","null","null","<div style=""font-size:60px;"">+</div>","","",""
"","","","","","html-keyboard-response","124","2.1.0","211409","prz5p18pff9","easy","pony","null","null","<div style=""font-size:60px;"">+</div>","","",""
"","","","","","categorize-image","125","2.1.0","214213","prz5p18pff9","easy","pony","801","a","stimuli/experiment1a/high_A_000.png","high","A","true"
"","","","","","html-keyboard-response","126","2.1.0","214714","prz5p18pff9","easy","pony","null","null","<div style=""font-size:60px;"">+</div>","","",""
"","","","","","html-keyboard-response","127","2.1.0","215216","prz5p18pff9","easy","pony","null","null","<div style=""font-size:60px;"">+</div>","","",""
"","","","","","categorize-image","128","2.1.0","218065","prz5p18pff9","easy","pony","846","b","stimuli/experiment1a/high_B_111.png","high","B","true"
"","","","","","image-keyboard-response","129","null","219184","prz5p18pff9","easy","pony","1118","q","stimuli/experiment_check.webp","","",""
"","","","","","html-keyboard-response","130","2.1.0","221187","prz5p18pff9","easy","pony","null","null","<p>Fluffy blesses you. Good job!</p><p>Press any key to continue.</p>","","",""
"","","","","","html-keyboard-response","131","2.1.0","221246","prz5p18pff9","easy","pony","58","b","<p><strong>TEST BLOCK 4 FINISHED</strong></p><p>Press any key to continue.</p>","","",""
"","","","","","html-keyboard-response","132","2.1.0","221748","prz5p18pff9","easy","pony","null","null","<div style=""font-size:60px;"">+</div>","","",""
"","","","","","html-keyboard-response","133","2.1.0","222249","prz5p18pff9","easy","pony","null","null","<div style=""font-size:60px;"">+</div>","","",""
"","","","","","categorize-image","134","2.1.0","225121","prz5p18pff9","easy","pony","869","a","stimuli/experiment1a/high_A_000.png","high","A","true"
"","","","","","html-keyboard-response","135","2.1.0","225623","prz5p18pff9","easy","pony","null","null","<div style=""font-size:60px;"">+</div>","","",""
"","","","","","html-keyboard-response","136","2.1.0","226124","prz5p18pff9","easy","pony","null","null","<div style=""font-size:60px;"">+</div>","","",""
"","","","","","categorize-image","137","2.1.0","228765","prz5p18pff9","easy","pony","638","b","stimuli/experiment1a/high_B_101.png","high","B","true"
"","","","","","html-keyboard-response","138","2.1.0","229267","prz5p18pff9","easy","pony","null","null","<div style=""font-size:60px;"">+</div>","","",""
"","","","","","html-keyboard-response","139","2.1.0","229769","prz5p18pff9","easy","pony","null","null","<div style=""font-size:60px;"">+</div>","","",""
"","","","","","categorize-image","140","2.1.0","234066","prz5p18pff9","easy","pony","2294","a","stimuli/experiment1a/high_A_001.png","high","A","true"
"","","","","","html-keyboard-response","141","2.1.0","234567","prz5p18pff9","easy","pony","null","null","<div style=""font-size:60px;"">+</div>","","",""
"","","","","","html-keyboard-response","142","2.1.0","235068","prz5p18pff9","easy","pony","null","null","<div style=""font-size:60px;"">+</div>","","",""
"","","","","","categorize-image","143","2.1.0","237717","prz5p18pff9","easy","pony","646","b","stimuli/experiment1a/high_B_111.png","high","B","true"
"","","","","","html-keyboard-response","144","2.1.0","238219","prz5p18pff9","easy","pony","null","null","<div style=""font-size:60px;"">+</div>","","",""
"","","","","","html-keyboard-response","145","2.1.0","238721","prz5p18pff9","easy","pony","null","null","<div style=""font-size:60px;"">+</div>","","",""
"","","","","","categorize-image","146","2.1.0","243543","prz5p18pff9","easy","pony","2819","a","stimuli/experiment1a/high_A_010.png","high","A","true"
"","","","","","html-keyboard-response","147","2.1.0","244045","prz5p18pff9","easy","pony","null","null","<div style=""font-size:60px;"">+</div>","","",""
"","","","","","html-keyboard-response","148","2.1.0","244547","prz5p18pff9","easy","pony","null","null","<div style=""font-size:60px;"">+</div>","","",""
"","","","","","categorize-image","149","2.1.0","249651","prz5p18pff9","easy","pony","3101","a","stimuli/experiment1a/high_A_000.png","high","A","true"
"","","","","","html-keyboard-response","150","2.1.0","250153","prz5p18pff9","easy","pony","null","null","<div style=""font-size:60px;"">+</div>","","",""
"","","","","","html-keyboard-response","151","2.1.0","250656","prz5p18pff9","easy","pony","null","null","<div style=""font-size:60px;"">+</div>","","",""
"","","","","","categorize-image","152","2.1.0","253969","prz5p18pff9","easy","pony","1309","a","stimuli/experiment1a/high_B_110.png","high","B","false"
"","","","","","html-keyboard-response","153","2.1.0","254472","prz5p18pff9","easy","pony","null","null","<div style=""font-size:60px;"">+</div>","","",""
"","","","","","categorize-image","154","2.1.0","256859","prz5p18pff9","easy","pony","384","b","stimuli/experiment1a/high_B_110.png","high","B","true"
"","","","","","html-keyboard-response","155","2.1.0","257361","prz5p18pff9","easy","pony","null","null","<div style=""font-size:60px;"">+</div>","","",""
"","","","","","html-keyboard-response","156","2.1.0","257864","prz5p18pff9","easy","pony","null","null","<div style=""font-size:60px;"">+</div>","","",""
"","","","","","categorize-image","157","2.1.0","263052","prz5p18pff9","easy","pony","3184","b","stimuli/experiment1a/high_B_111.png","high","B","true"
"","","","","","image-keyboard-response","158","null","264518","prz5p18pff9","easy","pony","1464","q","stimuli/experiment_check.webp","","",""
"","","","","","html-keyboard-response","159","2.1.0","265687","prz5p18pff9","easy","pony","1168","b","<p>Fluffy blesses you. Good job!</p><p>Press any key to continue.</p>","","",""
"","","","","","html-keyboard-response","160","2.1.0","268040","prz5p18pff9","easy","pony","2352","b","<p><strong>TEST BLOCK 5 FINISHED</strong></p><p>Press any key to continue.</p>","","",""
"","","","","","html-keyboard-response","161","2.1.0","268541","prz5p18pff9","easy","pony","null","null","<div style=""font-size:60px;"">+</div>","","",""
"","","","","","html-keyboard-response","162","2.1.0","269044","prz5p18pff9","easy","pony","null","null","<div style=""font-size:60px;"">+</div>","","",""
"","","","","","categorize-image","163","2.1.0","273488","prz5p18pff9","easy","pony","2442","b","stimuli/experiment1a/high_B_110.png","high","B","true"
"","","","","","html-keyboard-response","164","2.1.0","273990","prz5p18pff9","easy","pony","null","null","<div style=""font-size:60px;"">+</div>","","",""
"","","","","","html-keyboard-response","165","2.1.0","274492","prz5p18pff9","easy","pony","null","null","<div style=""font-size:60px;"">+</div>","","",""
"","","","","","categorize-image","166","2.1.0","277078","prz5p18pff9","easy","pony","583","b","stimuli/experiment1a/high_B_111.png","high","B","true"
"","","","","","html-keyboard-response","167","2.1.0","277581","prz5p18pff9","easy","pony","null","null","<div style=""font-size:60px;"">+</div>","","",""
"","","","","","html-keyboard-response","168","2.1.0","278082","prz5p18pff9","easy","pony","null","null","<div style=""font-size:60px;"">+</div>","","",""
"","","","","","categorize-image","169","2.1.0","280683","prz5p18pff9","easy","pony","598","a","stimuli/experiment1a/high_A_000.png","high","A","true"
"","","","","","html-keyboard-response","170","2.1.0","281186","prz5p18pff9","easy","pony","null","null","<div style=""font-size:60px;"">+</div>","","",""
"","","","","","html-keyboard-response","171","2.1.0","281687","prz5p18pff9","easy","pony","null","null","<div style=""font-size:60px;"">+</div>","","",""
"","","","","","categorize-image","172","2.1.0","284005","prz5p18pff9","easy","pony","316","b","stimuli/experiment1a/high_A_010.png","high","A","false"
"","","","","","html-keyboard-response","173","2.1.0","284507","prz5p18pff9","easy","pony","null","null","<div style=""font-size:60px;"">+</div>","","",""
"","","","","","categorize-image","174","2.1.0","286549","prz5p18pff9","easy","pony","39","a","stimuli/experiment1a/high_A_010.png","high","A","true"
"","","","","","html-keyboard-response","175","2.1.0","287051","prz5p18pff9","easy","pony","null","null","<div style=""font-size:60px;"">+</div>","","",""
"","","","","","html-keyboard-response","176","2.1.0","287553","prz5p18pff9","easy","pony","null","null","<div style=""font-size:60px;"">+</div>","","",""
"","","","","","categorize-image","177","2.1.0","290216","prz5p18pff9","easy","pony","661","b","stimuli/experiment1a/high_A_001.png","high","A","false"
"","","","","","html-keyboard-response","178","2.1.0","290717","prz5p18pff9","easy","pony","null","null","<div style=""font-size:60px;"">+</div>","","",""
"","","","","","categorize-image","179","2.1.0","293003","prz5p18pff9","easy","pony","283","a","stimuli/experiment1a/high_A_001.png","high","A","true"
"","","","","","html-keyboard-response","180","2.1.0","293505","prz5p18pff9","easy","pony","null","null","<div style=""font-size:60px;"">+</div>","","",""
"","","","","","html-keyboard-response","181","2.1.0","294007","prz5p18pff9","easy","pony","null","null","<div style=""font-size:60px;"">+</div>","","",""
"","","","","","categorize-image","182","2.1.0","297337","prz5p18pff9","easy","pony","1327","a","stimuli/experiment1a/high_A_000.png","high","A","true"
"","","","","","html-keyboard-response","183","2.1.0","297839","prz5p18pff9","easy","pony","null","null","<div style=""font-size:60px;"">+</div>","","",""
"","","","","","html-keyboard-response","184","2.1.0","298341","prz5p18pff9","easy","pony","null","null","<div style=""font-size:60px;"">+</div>","","",""
"","","","","","categorize-image","185","2.1.0","301127","prz5p18pff9","easy","pony","783","b","stimuli/experiment1a/high_B_101.png","high","B","true"
"","","","","","html-keyboard-response","186","2.1.0","301628","prz5p18pff9","easy","pony","null","null","<div style=""font-size:60px;"">+</div>","","",""
"","","","","","html-keyboard-response","187","2.1.0","302129","prz5p18pff9","easy","pony","null","null","<div style=""font-size:60px;"">+</div>","","",""
"","","","","","categorize-image","188","2.1.0","304826","prz5p18pff9","easy","pony","695","b","stimuli/experiment1a/high_B_111.png","high","B","true"
"","","","","","image-keyboard-response","189","null","306206","prz5p18pff9","easy","pony","1379","q","stimuli/experiment_check.webp","","",""
"","","","","","html-keyboard-response","190","2.1.0","307568","prz5p18pff9","easy","pony","1361","b","<p>Fluffy blesses you. Good job!</p><p>Press any key to continue.</p>","","",""
"","","","","","html-keyboard-response","191","2.1.0","307642","prz5p18pff9","easy","pony","73","b","<p><strong>TEST BLOCK 6 FINISHED</strong></p><p>Press any key to continue.</p>","","",""
"","","","","","survey-text","192","2.1.0","318016","prz5p18pff9","easy","pony","10373","{""Language"":""no"",""Art_background"":""no"",""Strategy"":""no""}","","","",""
"","","","","","survey-text","193","2.1.0","327982","prz5p18pff9","easy","pony","9964","{""Issues"":""no"",""Why_experiment"":""color ways"",""Extra_info"":""no""}","","","",""
