"success","timeout","failed_images","failed_audio","failed_video","trial_type","trial_index","plugin_version","time_elapsed","random_id","condition","participant","rt","response","stimulus","nameability","correct_category","correct"
"true","false","[]","[]","[]","preload","0","2.1.0","116","ps5xzg7dy1u","easy2","squirrel","","","","","",""
"true","","","","","fullscreen","1","2.1.0","26832","ps5xzg7dy1u","easy2","squirrel","25698","","","","",""
"","","","","","survey-text","2","2.1.0","28849","ps5xzg7dy1u","easy2","squirrel","2011","{""participant_id"":""squirrel""}","","","",""
"","","","","","html-keyboard-response","3","2.1.0","33124","ps5xzg7dy1u","easy2","squirrel","4272"," ","
     <p> Welcome to the experiment! </p>

     <p> In this experiment, you will see a series of images. </p>
     <p> Your task is to categorize each image into one of two categories (A and B) as quickly and accurately as possible. </p>
     <p> You will receive feedback after each response. If you get the category wrong, you will be asked to choose the category again</p>
   ","","",""
"","","","","","html-keyboard-response","4","2.1.0","33630","ps5xzg7dy1u","easy2","squirrel","null","null","<div style=""font-size:60px;"">+</div>","","",""
"","","","","","html-keyboard-response","5","2.1.0","34145","ps5xzg7dy1u","easy2","squirrel","null","null","<div style=""font-size:60px;"">+</div>","","",""
"","","","","","categorize-image","6","2.1.0","37724","ps5xzg7dy1u","easy2","squirrel","1570","a","stimuli/experiment1a/high_B_111.png","high","A","true"
"","","","","","html-keyboard-response","7","2.1.0","38231","ps5xzg7dy1u","easy2","squirrel","null","null","<div style=""font-size:60px;"">+</div>","","",""
"","","","","","html-keyboard-response","8","2.1.0","38744","ps5xzg7dy1u","easy2","squirrel","null","null","<div style=""font-size:60px;"">+</div>","","",""
"","","","","","categorize-image","9","2.1.0","41602","ps5xzg7dy1u","easy2","squirrel","848","a","stimuli/experiment1a/high_B_111.png","high","A","true"
"","","","","","html-keyboard-response","10","2.1.0","42118","ps5xzg7dy1u","easy2","squirrel","null","null","<div style=""font-size:60px;"">+</div>","","",""
"","","","","","html-keyboard-response","11","2.1.0","42620","ps5xzg7dy1u","easy2","squirrel","null","null","<div style=""font-size:60px;"">+</div>","","",""
"","","","","","categorize-image","12","2.1.0","46602","ps5xzg7dy1u","easy2","squirrel","1970","b","stimuli/experiment1a/high_A_010.png","high","B","true"
"","","","","","html-keyboard-response","13","2.1.0","47119","ps5xzg7dy1u","easy2","squirrel","null","null","<div style=""font-size:60px;"">+</div>","","",""
"","","","","","html-keyboard-response","14","2.1.0","47630","ps5xzg7dy1u","easy2","squirrel","null","null","<div style=""font-size:60px;"">+</div>","","",""
"","","","","","categorize-image","15","2.1.0","50563","ps5xzg7dy1u","easy2","squirrel","930","a","stimuli/experiment1a/high_A_000.png","high","B","false"
"","","","","","html-keyboard-response","16","2.1.0","51077","ps5xzg7dy1u","easy2","squirrel","null","null","<div style=""font-size:60px;"">+</div>","","",""
"","","","","","categorize-image","17","2.1.0","53744","ps5xzg7dy1u","easy2","squirrel","653","b","stimuli/experiment1a/high_A_000.png","high","B","true"
"","","","","","html-keyboard-response","18","2.1.0","54260","ps5xzg7dy1u","easy2","squirrel","null","null","<div style=""font-size:60px;"">+</div>","","",""
"","","","","","html-keyboard-response","19","2.1.0","54772","ps5xzg7dy1u","easy2","squirrel","null","null","<div style=""font-size:60px;"">+</div>","","",""
"","","","","","categorize-image","20","2.1.0","57360","ps5xzg7dy1u","easy2","squirrel","578","a","stimuli/experiment1a/high_B_110.png","high","A","true"
"","","","","","html-keyboard-response","21","2.1.0","57871","ps5xzg7dy1u","easy2","squirrel","null","null","<div style=""font-size:60px;"">+</div>","","",""
"","","","","","html-keyboard-response","22","2.1.0","58380","ps5xzg7dy1u","easy2","squirrel","null","null","<div style=""font-size:60px;"">+</div>","","",""
"","","","","","categorize-image","23","2.1.0","61144","ps5xzg7dy1u","easy2","squirrel","759","b","stimuli/experiment1a/high_B_101.png","high","A","false"
"","","","","","html-keyboard-response","24","2.1.0","61648","ps5xzg7dy1u","easy2","squirrel","null","null","<div style=""font-size:60px;"">+</div>","","",""
"","","","","","categorize-image","25","2.1.0","64365","ps5xzg7dy1u","easy2","squirrel","711","a","stimuli/experiment1a/high_B_101.png","high","A","true"
"","","","","","html-keyboard-response","26","2.1.0","64870","ps5xzg7dy1u","easy2","squirrel","null","null","<div style=""font-size:60px;"">+</div>","","",""
"","","","","","html-keyboard-response","27","2.1.0","65382","ps5xzg7dy1u","easy2","squirrel","null","null","<div style=""font-size:60px;"">+</div>","","",""
"","","","","","categorize-image","28","2.1.0","68853","ps5xzg7dy1u","easy2","squirrel","1459","b","stimuli/experiment1a/high_A_001.png","high","B","true"
"","","","","","html-keyboard-response","29","2.1.0","69361","ps5xzg7dy1u","easy2","squirrel","null","null","<div style=""font-size:60px;"">+</div>","","",""
"","","","","","html-keyboard-response","30","2.1.0","69867","ps5xzg7dy1u","easy2","squirrel","null","null","<div style=""font-size:60px;"">+</div>","","",""
"","","","","","categorize-image","31","2.1.0","72961","ps5xzg7dy1u","easy2","squirrel","1084","b","stimuli/experiment1a/high_A_000.png","high","B","true"
"","","","","","image-keyboard-response","32","null","74443","ps5xzg7dy1u","easy2","squirrel","1475","q","stimuli/experiment_check.webp","","",""
"","","","","","html-keyboard-response","33","2.1.0","76449","ps5xzg7dy1u","easy2","squirrel","null","null","<p>Fluffy blesses you. Good job!</p><p>Press any key to continue.</p>","","",""
"","","","","","html-keyboard-response","34","2.1.0","76587","ps5xzg7dy1u","easy2","squirrel","136"," ","<p><strong>TEST BLOCK 1 FINISHED</strong></p><p>Press any key to continue.</p>","","",""
"","","","","","html-keyboard-response","35","2.1.0","77098","ps5xzg7dy1u","easy2","squirrel","null","null","<div style=""font-size:60px;"">+</div>","","",""
"","","","","","html-keyboard-response","36","2.1.0","77616","ps5xzg7dy1u","easy2","squirrel","null","null","<div style=""font-size:60px;"">+</div>","","",""
"","","","","","categorize-image","37","2.1.0","81201","ps5xzg7dy1u","easy2","squirrel","1570","a","stimuli/experiment1a/high_A_001.png","high","B","false"
"","","","","","html-keyboard-response","38","2.1.0","81716","ps5xzg7dy1u","easy2","squirrel","null","null","<div style=""font-size:60px;"">+</div>","","",""
"","","","","","categorize-image","39","2.1.0","84261","ps5xzg7dy1u","easy2","squirrel","536","b","stimuli/experiment1a/high_A_001.png","high","B","true"
"","","","","","html-keyboard-response","40","2.1.0","84771","ps5xzg7dy1u","easy2","squirrel","null","null","<div style=""font-size:60px;"">+</div>","","",""
"","","","","","html-keyboard-response","41","2.1.0","85287","ps5xzg7dy1u","easy2","squirrel","null","null","<div style=""font-size:60px;"">+</div>","","",""
"","","","","","categorize-image","42","2.1.0","87818","ps5xzg7dy1u","easy2","squirrel","518","b","stimuli/experiment1a/high_A_000.png","high","B","true"
"","","","","","html-keyboard-response","43","2.1.0","88328","ps5xzg7dy1u","easy2","squirrel","null","null","<div style=""font-size:60px;"">+</div>","","",""
"","","","","","html-keyboard-response","44","2.1.0","88835","ps5xzg7dy1u","easy2","squirrel","null","null","<div style=""font-size:60px;"">+</div>","","",""
"","","","","","categorize-image","45","2.1.0","91370","ps5xzg7dy1u","easy2","squirrel","519","a","stimuli/experiment1a/high_B_101.png","high","A","true"
"","","","","","html-keyboard-response","46","2.1.0","91896","ps5xzg7dy1u","easy2","squirrel","null","null","<div style=""font-size:60px;"">+</div>","","",""
"","","","","","html-keyboard-response","47","2.1.0","92398","ps5xzg7dy1u","easy2","squirrel","null","null","<div style=""font-size:60px;"">+</div>","","",""
"","","","","","categorize-image","48","2.1.0","95194","ps5xzg7dy1u","easy2","squirrel","794","a","stimuli/experiment1a/high_B_110.png","high","A","true"
"","","","","","html-keyboard-response","49","2.1.0","95710","ps5xzg7dy1u","easy2","squirrel","null","null","<div style=""font-size:60px;"">+</div>","","",""
"","","","","","html-keyboard-response","50","2.1.0","96214","ps5xzg7dy1u","easy2","squirrel","null","null","<div style=""font-size:60px;"">+</div>","","",""
"","","","","","categorize-image","51","2.1.0","98914","ps5xzg7dy1u","easy2","squirrel","697","a","stimuli/experiment1a/high_B_111.png","high","A","true"
"","","","","","html-keyboard-response","52","2.1.0","99430","ps5xzg7dy1u","easy2","squirrel","null","null","<div style=""font-size:60px;"">+</div>","","",""
"","","","","","html-keyboard-response","53","2.1.0","99934","ps5xzg7dy1u","easy2","squirrel","null","null","<div style=""font-size:60px;"">+</div>","","",""
"","","","","","categorize-image","54","2.1.0","102443","ps5xzg7dy1u","easy2","squirrel","499","a","stimuli/experiment1a/high_B_111.png","high","A","true"
"","","","","","html-keyboard-response","55","2.1.0","102947","ps5xzg7dy1u","easy2","squirrel","null","null","<div style=""font-size:60px;"">+</div>","","",""
"","","","","","html-keyboard-response","56","2.1.0","103462","ps5xzg7dy1u","easy2","squirrel","null","null","<div style=""font-size:60px;"">+</div>","","",""
"","","","","","categorize-image","57","2.1.0","105990","ps5xzg7dy1u","easy2","squirrel","516","b","stimuli/experiment1a/high_A_010.png","high","B","true"
"","","","","","html-keyboard-response","58","2.1.0","106507","ps5xzg7dy1u","easy2","squirrel","null","null","<div style=""font-size:60px;"">+</div>","","",""
"","","","","","html-keyboard-response","59","2.1.0","107016","ps5xzg7dy1u","easy2","squirrel","null","null","<div style=""font-size:60px;"">+</div>","","",""
"","","","","","categorize-image","60","2.1.0","109584","ps5xzg7dy1u","easy2","squirrel","564","b","stimuli/experiment1a/high_A_000.png","high","B","true"
"","","","","","image-keyboard-response","61","null","110632","ps5xzg7dy1u","easy2","squirrel","1046","q","stimuli/experiment_check.webp","","",""
"","","","","","html-keyboard-response","62","2.1.0","111550","ps5xzg7dy1u","easy2","squirrel","916"," ","<p>Fluffy blesses you. Good job!</p><p>Press any key to continue.</p>","","",""
"","","","","","html-keyboard-response","63","2.1.0","113006","ps5xzg7dy1u","easy2","squirrel","1455"," ","<p><strong>TEST BLOCK 2 FINISHED</strong></p><p>Press any key to continue.</p>","","",""
"","","","","","html-keyboard-response","64","2.1.0","113523","ps5xzg7dy1u","easy2","squirrel","null","null","<div style=""font-size:60px;"">+</div>","","",""
"","","","","","html-keyboard-response","65","2.1.0","114024","ps5xzg7dy1u","easy2","squirrel","null","null","<div style=""font-size:60px;"">+</div>","","",""
"","","","","","categorize-image","66","2.1.0","116808","ps5xzg7dy1u","easy2","squirrel","765","a","stimuli/experiment1a/high_B_110.png","high","A","true"
"","","","","","html-keyboard-response","67","2.1.0","117316","ps5xzg7dy1u","easy2","squirrel","null","null","<div style=""font-size:60px;"">+</div>","","",""
"","","","","","html-keyboard-response","68","2.1.0","117822","ps5xzg7dy1u","easy2","squirrel","null","null","<div style=""font-size:60px;"">+</div>","","",""
"","","","","","categorize-image","69","2.1.0","120294","ps5xzg7dy1u","easy2","squirrel","463","a","stimuli/experiment1a/high_B_101.png","high","A","true"
"","","","","","html-keyboard-response","70","2.1.0","120808","ps5xzg7dy1u","easy2","squirrel","null","null","<div style=""font-size:60px;"">+</div>","","",""
"","","","","","html-keyboard-response","71","2.1.0","121314","ps5xzg7dy1u","easy2","squirrel","null","null","<div style=""font-size:60px;"">+</div>","","",""
"","","","","","categorize-image","72","2.1.0","123803","ps5xzg7dy1u","easy2","squirrel","484","a","stimuli/experiment1a/high_B_111.png","high","A","true"
"","","","","","html-keyboard-response","73","2.1.0","124308","ps5xzg7dy1u","easy2","squirrel","null","null","<div style=""font-size:60px;"">+</div>","","",""
"","","","","","html-keyboard-response","74","2.1.0","124817","ps5xzg7dy1u","easy2","squirrel","null","null","<div style=""font-size:60px;"">+</div>","","",""
"","","","","","categorize-image","75","2.1.0","127310","ps5xzg7dy1u","easy2","squirrel","491","b","stimuli/experiment1a/high_A_001.png","high","B","true"
"","","","","","html-keyboard-response","76","2.1.0","127815","ps5xzg7dy1u","easy2","squirrel","null","null","<div style=""font-size:60px;"">+</div>","","",""
"","","","","","html-keyboard-response","77","2.1.0","128323","ps5xzg7dy1u","easy2","squirrel","null","null","<div style=""font-size:60px;"">+</div>","","",""
"","","","","","categorize-image","78","2.1.0","130739","ps5xzg7dy1u","easy2","squirrel","406","b","stimuli/experiment1a/high_A_000.png","high","B","true"
"","","","","","html-keyboard-response","79","2.1.0","131243","ps5xzg7dy1u","easy2","squirrel","null","null","<div style=""font-size:60px;"">+</div>","","",""
"","","","","","html-keyboard-response","80","2.1.0","131756","ps5xzg7dy1u","easy2","squirrel","null","null","<div style=""font-size:60px;"">+</div>","","",""
"","","","","","categorize-image","81","2.1.0","134167","ps5xzg7dy1u","easy2","squirrel","393","a","stimuli/experiment1a/high_B_111.png","high","A","true"
"","","","","","html-keyboard-response","82","2.1.0","134682","ps5xzg7dy1u","easy2","squirrel","null","null","<div style=""font-size:60px;"">+</div>","","",""
"","","","","","html-keyboard-response","83","2.1.0","135197","ps5xzg7dy1u","easy2","squirrel","null","null","<div style=""font-size:60px;"">+</div>","","",""
"","","","","","categorize-image","84","2.1.0","137616","ps5xzg7dy1u","easy2","squirrel","406","b","stimuli/experiment1a/high_A_010.png","high","B","true"
"","","","","","html-keyboard-response","85","2.1.0","138128","ps5xzg7dy1u","easy2","squirrel","null","null","<div style=""font-size:60px;"">+</div>","","",""
"","","","","","html-keyboard-response","86","2.1.0","138636","ps5xzg7dy1u","easy2","squirrel","null","null","<div style=""font-size:60px;"">+</div>","","",""
"","","","","","categorize-image","87","2.1.0","141130","ps5xzg7dy1u","easy2","squirrel","489","b","stimuli/experiment1a/high_A_000.png","high","B","true"
"","","","","","image-keyboard-response","88","null","142036","ps5xzg7dy1u","easy2","squirrel","903","q","stimuli/experiment_check.webp","","",""
"","","","","","html-keyboard-response","89","2.1.0","142782","ps5xzg7dy1u","easy2","squirrel","746"," ","<p>Fluffy blesses you. Good job!</p><p>Press any key to continue.</p>","","",""
"","","","","","html-keyboard-response","90","2.1.0","145305","ps5xzg7dy1u","easy2","squirrel","2521"," ","<p><strong>TEST BLOCK 3 FINISHED</strong></p><p>Press any key to continue.</p>","","",""
"","","","","","html-keyboard-response","91","2.1.0","145816","ps5xzg7dy1u","easy2","squirrel","null","null","<div style=""font-size:60px;"">+</div>","","",""
"","","","","","html-keyboard-response","92","2.1.0","146322","ps5xzg7dy1u","easy2","squirrel","null","null","<div style=""font-size:60px;"">+</div>","","",""
"","","","","","categorize-image","93","2.1.0","148866","ps5xzg7dy1u","easy2","squirrel","531","b","stimuli/experiment1a/high_A_000.png","high","B","true"
"","","","","","html-keyboard-response","94","2.1.0","149379","ps5xzg7dy1u","easy2","squirrel","null","null","<div style=""font-size:60px;"">+</div>","","",""
"","","","","","html-keyboard-response","95","2.1.0","149896","ps5xzg7dy1u","easy2","squirrel","null","null","<div style=""font-size:60px;"">+</div>","","",""
"","","","","","categorize-image","96","2.1.0","152363","ps5xzg7dy1u","easy2","squirrel","453","b","stimuli/experiment1a/high_A_001.png","high","B","true"
"","","","","","html-keyboard-response","97","2.1.0","152871","ps5xzg7dy1u","easy2","squirrel","null","null","<div style=""font-size:60px;"">+</div>","","",""
"","","","","","html-keyboard-response","98","2.1.0","153385","ps5xzg7dy1u","easy2","squirrel","null","null","<div style=""font-size:60px;"">+</div>","","",""
"","","","","","categorize-image","99","2.1.0","155870","ps5xzg7dy1u","easy2","squirrel","481","a","stimuli/experiment1a/high_B_110.png","high","A","true"
"","","","","","html-keyboard-response","100","2.1.0","156383","ps5xzg7dy1u","easy2","squirrel","null","null","<div style=""font-size:60px;"">+</div>","","",""
"","","","","","html-keyboard-response","101","2.1.0","156893","ps5xzg7dy1u","easy2","squirrel","null","null","<div style=""font-size:60px;"">+</div>","","",""
"","","","","","categorize-image","102","2.1.0","159317","ps5xzg7dy1u","easy2","squirrel","417","a","stimuli/experiment1a/high_B_111.png","high","A","true"
"","","","","","html-keyboard-response","103","2.1.0","159824","ps5xzg7dy1u","easy2","squirrel","null","null","<div style=""font-size:60px;"">+</div>","","",""
"","","","","","html-keyboard-response","104","2.1.0","160334","ps5xzg7dy1u","easy2","squirrel","null","null","<div style=""font-size:60px;"">+</div>","","",""
"","","","","","categorize-image","105","2.1.0","162868","ps5xzg7dy1u","easy2","squirrel","516","a","stimuli/experiment1a/high_B_101.png","high","A","true"
"","","","","","html-keyboard-response","106","2.1.0","163380","ps5xzg7dy1u","easy2","squirrel","null","null","<div style=""font-size:60px;"">+</div>","","",""
"","","","","","html-keyboard-response","107","2.1.0","163885","ps5xzg7dy1u","easy2","squirrel","null","null","<div style=""font-size:60px;"">+</div>","","",""
"","","","","","categorize-image","108","2.1.0","166542","ps5xzg7dy1u","easy2","squirrel","643","b","stimuli/experiment1a/high_A_000.png","high","B","true"
"","","","","","html-keyboard-response","109","2.1.0","167055","ps5xzg7dy1u","easy2","squirrel","null","null","<div style=""font-size:60px;"">+</div>","","",""
"","","","","","html-keyboard-response","110","2.1.0","167569","ps5xzg7dy1u","easy2","squirrel","null","null","<div style=""font-size:60px;"">+</div>","","",""
"","","","","","categorize-image","111","2.1.0","170009","ps5xzg7dy1u","easy2","squirrel","436","b","stimuli/experiment1a/high_A_010.png","high","B","true"
"","","","","","html-keyboard-response","112","2.1.0","170522","ps5xzg7dy1u","easy2","squirrel","null","null","<div style=""font-size:60px;"">+</div>","","",""
"","","","","","html-keyboard-response","113","2.1.0","171037","ps5xzg7dy1u","easy2","squirrel","null","null","<div style=""font-size:60px;"">+</div>","","",""
"","","","","","categorize-image","114","2.1.0","173634","ps5xzg7dy1u","easy2","squirrel","586","a","stimuli/experiment1a/high_B_111.png","high","A","true"
"","","","","","image-keyboard-response","115","null","174509","ps5xzg7dy1u","easy2","squirrel","872","q","stimuli/experiment_check.webp","","",""
"","","","","","html-keyboard-response","116","2.1.0","175242","ps5xzg7dy1u","easy2","squirrel","732"," ","<p>Fluffy blesses you. Good job!</p><p>Press any key to continue.</p>","","",""
"","","","","","html-keyboard-response","117","2.1.0","175937","ps5xzg7dy1u","easy2","squirrel","695"," ","<p><strong>TEST BLOCK 4 FINISHED</strong></p><p>Press any key to continue.</p>","","",""
"","","","","","html-keyboard-response","118","2.1.0","176439","ps5xzg7dy1u","easy2","squirrel","null","null","<div style=""font-size:60px;"">+</div>","","",""
"","","","","","html-keyboard-response","119","2.1.0","176942","ps5xzg7dy1u","easy2","squirrel","null","null","<div style=""font-size:60px;"">+</div>","","",""
"","","","","","categorize-image","120","2.1.0","179618","ps5xzg7dy1u","easy2","squirrel","670","a","stimuli/experiment1a/high_B_111.png","high","A","true"
"","","","","","html-keyboard-response","121","2.1.0","180121","ps5xzg7dy1u","easy2","squirrel","null","null","<div style=""font-size:60px;"">+</div>","","",""
"","","","","","html-keyboard-response","122","2.1.0","180631","ps5xzg7dy1u","easy2","squirrel","null","null","<div style=""font-size:60px;"">+</div>","","",""
"","","","","","categorize-image","123","2.1.0","183068","ps5xzg7dy1u","easy2","squirrel","422","a","stimuli/experiment1a/high_B_110.png","high","A","true"
"","","","","","html-keyboard-response","124","2.1.0","183586","ps5xzg7dy1u","easy2","squirrel","null","null","<div style=""font-size:60px;"">+</div>","","",""
"","","","","","html-keyboard-response","125","2.1.0","184088","ps5xzg7dy1u","easy2","squirrel","null","null","<div style=""font-size:60px;"">+</div>","","",""
"","","","","","categorize-image","126","2.1.0","186817","ps5xzg7dy1u","easy2","squirrel","716","a","stimuli/experiment1a/high_B_111.png","high","A","true"
"","","","","","html-keyboard-response","127","2.1.0","187334","ps5xzg7dy1u","easy2","squirrel","null","null","<div style=""font-size:60px;"">+</div>","","",""
"","","","","","html-keyboard-response","128","2.1.0","187843","ps5xzg7dy1u","easy2","squirrel","null","null","<div style=""font-size:60px;"">+</div>","","",""
"","","","","","categorize-image","129","2.1.0","190433","ps5xzg7dy1u","easy2","squirrel","584","b","stimuli/experiment1a/high_A_010.png","high","B","true"
"","","","","","html-keyboard-response","130","2.1.0","190937","ps5xzg7dy1u","easy2","squirrel","null","null","<div style=""font-size:60px;"">+</div>","","",""
"","","","","","html-keyboard-response","131","2.1.0","191445","ps5xzg7dy1u","easy2","squirrel","null","null","<div style=""font-size:60px;"">+</div>","","",""
"","","","","","categorize-image","132","2.1.0","193819","ps5xzg7dy1u","easy2","squirrel","357","b","stimuli/experiment1a/high_A_000.png","high","B","true"
"","","","","","html-keyboard-response","133","2.1.0","194323","ps5xzg7dy1u","easy2","squirrel","null","null","<div style=""font-size:60px;"">+</div>","","",""
"","","","","","html-keyboard-response","134","2.1.0","194841","ps5xzg7dy1u","easy2","squirrel","null","null","<div style=""font-size:60px;"">+</div>","","",""
"","","","","","categorize-image","135","2.1.0","197336","ps5xzg7dy1u","easy2","squirrel","487","b","stimuli/experiment1a/high_A_001.png","high","B","true"
"","","","","","html-keyboard-response","136","2.1.0","197839","ps5xzg7dy1u","easy2","squirrel","null","null","<div style=""font-size:60px;"">+</div>","","",""
"","","","","","html-keyboard-response","137","2.1.0","198355","ps5xzg7dy1u","easy2","squirrel","null","null","<div style=""font-size:60px;"">+</div>","","",""
"","","","","","categorize-image","138","2.1.0","200805","ps5xzg7dy1u","easy2","squirrel","437","a","stimuli/experiment1a/high_B_101.png","high","A","true"
"","","","","","html-keyboard-response","139","2.1.0","201323","ps5xzg7dy1u","easy2","squirrel","null","null","<div style=""font-size:60px;"">+</div>","","",""
"","","","","","html-keyboard-response","140","2.1.0","201830","ps5xzg7dy1u","easy2","squirrel","null","null","<div style=""font-size:60px;"">+</div>","","",""
"","","","","","categorize-image","141","2.1.0","204286","ps5xzg7dy1u","easy2","squirrel","440","b","stimuli/experiment1a/high_A_000.png","high","B","true"
"","","","","","image-keyboard-response","142","null","206306","ps5xzg7dy1u","easy2","squirrel","2017","q","stimuli/experiment_check.webp","","",""
"","","","","","html-keyboard-response","143","2.1.0","208323","ps5xzg7dy1u","easy2","squirrel","null","null","<p>Fluffy blesses you. Good job!</p><p>Press any key to continue.</p>","","",""
"","","","","","html-keyboard-response","144","2.1.0","218486","ps5xzg7dy1u","easy2","squirrel","10162"," ","<p><strong>TEST BLOCK 5 FINISHED</strong></p><p>Press any key to continue.</p>","","",""
"","","","","","html-keyboard-response","145","2.1.0","218998","ps5xzg7dy1u","easy2","squirrel","null","null","<div style=""font-size:60px;"">+</div>","","",""
"","","","","","html-keyboard-response","146","2.1.0","219506","ps5xzg7dy1u","easy2","squirrel","null","null","<div style=""font-size:60px;"">+</div>","","",""
"","","","","","categorize-image","147","2.1.0","221964","ps5xzg7dy1u","easy2","squirrel","452","a","stimuli/experiment1a/high_B_111.png","high","A","true"
"","","","","","html-keyboard-response","148","2.1.0","222472","ps5xzg7dy1u","easy2","squirrel","null","null","<div style=""font-size:60px;"">+</div>","","",""
"","","","","","html-keyboard-response","149","2.1.0","222976","ps5xzg7dy1u","easy2","squirrel","null","null","<div style=""font-size:60px;"">+</div>","","",""
"","","","","","categorize-image","150","2.1.0","225428","ps5xzg7dy1u","easy2","squirrel","441","b","stimuli/experiment1a/high_A_010.png","high","B","true"
"","","","","","html-keyboard-response","151","2.1.0","225935","ps5xzg7dy1u","easy2","squirrel","null","null","<div style=""font-size:60px;"">+</div>","","",""
"","","","","","html-keyboard-response","152","2.1.0","226442","ps5xzg7dy1u","easy2","squirrel","null","null","<div style=""font-size:60px;"">+</div>","","",""
"","","","","","categorize-image","153","2.1.0","228759","ps5xzg7dy1u","easy2","squirrel","310","b","stimuli/experiment1a/high_A_001.png","high","B","true"
"","","","","","html-keyboard-response","154","2.1.0","229269","ps5xzg7dy1u","easy2","squirrel","null","null","<div style=""font-size:60px;"">+</div>","","",""
"","","","","","html-keyboard-response","155","2.1.0","229780","ps5xzg7dy1u","easy2","squirrel","null","null","<div style=""font-size:60px;"">+</div>","","",""
"","","","","","categorize-image","156","2.1.0","232195","ps5xzg7dy1u","easy2","squirrel","407","b","stimuli/experiment1a/high_A_000.png","high","B","true"
"","","","","","html-keyboard-response","157","2.1.0","232711","ps5xzg7dy1u","easy2","squirrel","null","null","<div style=""font-size:60px;"">+</div>","","",""
"","","","","","html-keyboard-response","158","2.1.0","233224","ps5xzg7dy1u","easy2","squirrel","null","null","<div style=""font-size:60px;"">+</div>","","",""
"","","","","","categorize-image","159","2.1.0","236129","ps5xzg7dy1u","easy2","squirrel","888","a","stimuli/experiment1a/high_B_101.png","high","A","true"
"","","","","","html-keyboard-response","160","2.1.0","236647","ps5xzg7dy1u","easy2","squirrel","null","null","<div style=""font-size:60px;"">+</div>","","",""
"","","","","","html-keyboard-response","161","2.1.0","237148","ps5xzg7dy1u","easy2","squirrel","null","null","<div style=""font-size:60px;"">+</div>","","",""
"","","","","","categorize-image","162","2.1.0","239652","ps5xzg7dy1u","easy2","squirrel","495","a","stimuli/experiment1a/high_B_110.png","high","A","true"
"","","","","","html-keyboard-response","163","2.1.0","240163","ps5xzg7dy1u","easy2","squirrel","null","null","<div style=""font-size:60px;"">+</div>","","",""
"","","","","","html-keyboard-response","164","2.1.0","240677","ps5xzg7dy1u","easy2","squirrel","null","null","<div style=""font-size:60px;"">+</div>","","",""
"","","","","","categorize-image","165","2.1.0","243184","ps5xzg7dy1u","easy2","squirrel","493","a","stimuli/experiment1a/high_B_111.png","high","A","true"
"","","","","","html-keyboard-response","166","2.1.0","243699","ps5xzg7dy1u","easy2","squirrel","null","null","<div style=""font-size:60px;"">+</div>","","",""
"","","","","","html-keyboard-response","167","2.1.0","244215","ps5xzg7dy1u","easy2","squirrel","null","null","<div style=""font-size:60px;"">+</div>","","",""
"","","","","","categorize-image","168","2.1.0","246649","ps5xzg7dy1u","easy2","squirrel","424","b","stimuli/experiment1a/high_A_000.png","high","B","true"
"","","","","","image-keyboard-response","169","null","247577","ps5xzg7dy1u","easy2","squirrel","926","q","stimuli/experiment_check.webp","","",""
"","","","","","html-keyboard-response","170","2.1.0","248614","ps5xzg7dy1u","easy2","squirrel","1036"," ","<p>Fluffy blesses you. Good job!</p><p>Press any key to continue.</p>","","",""
"","","","","","html-keyboard-response","171","2.1.0","250213","ps5xzg7dy1u","easy2","squirrel","1597"," ","<p><strong>TEST BLOCK 6 FINISHED</strong></p><p>Press any key to continue.</p>","","",""
"","","","","","survey-text","172","2.1.0","271733","ps5xzg7dy1u","easy2","squirrel","21499","{""Language"":""yes"",""Art_background"":""not really"",""Strategy"":""orange --> A\nblue --> B""}","","","",""
"","","","","","survey-text","173","2.1.0","284990","ps5xzg7dy1u","easy2","squirrel","13254","{""Issues"":""no"",""Why_experiment"":""how we were able to create categories with images"",""Extra_info"":""""}","","","",""
