"success","timeout","failed_images","failed_audio","failed_video","trial_type","trial_index","plugin_version","time_elapsed","random_id","condition","participant","rt","response","stimulus","nameability","correct_category","correct"
"true","false","[]","[]","[]","preload","0","2.1.0","1258","ptx5y7g8e89","hard2","swan","","","","","",""
"true","","","","","fullscreen","1","2.1.0","63706","ptx5y7g8e89","hard2","swan","61444","","","","",""
"","","","","","survey-text","2","2.1.0","65880","ptx5y7g8e89","hard2","swan","2170","{""participant_id"":""swan""}","","","",""
"","","","","","html-keyboard-response","3","2.1.0","74771","ptx5y7g8e89","hard2","swan","8889","a","
     <p> Welcome to the experiment! </p>

     <p> In this experiment, you will see a series of images. </p>
     <p> Your task is to categorize each image into one of two categories (A and B) as quickly and accurately as possible. </p>
     <p> You will receive feedback after each response. If you get the category wrong, you will be asked to choose the category again</p>
   ","","",""
"","","","","","html-keyboard-response","4","2.1.0","75272","ptx5y7g8e89","hard2","swan","null","null","<div style=""font-size:60px;"">+</div>","","",""
"","","","","","html-keyboard-response","5","2.1.0","75775","ptx5y7g8e89","hard2","swan","null","null","<div style=""font-size:60px;"">+</div>","","",""
"","","","","","categorize-image","6","2.1.0","79988","ptx5y7g8e89","hard2","swan","2208","a","stimuli/experiment1a/low_B_101.png","low","A","true"
"","","","","","html-keyboard-response","7","2.1.0","80492","ptx5y7g8e89","hard2","swan","null","null","<div style=""font-size:60px;"">+</div>","","",""
"","","","","","html-keyboard-response","8","2.1.0","80994","ptx5y7g8e89","hard2","swan","null","null","<div style=""font-size:60px;"">+</div>","","",""
"","","","","","categorize-image","9","2.1.0","84204","ptx5y7g8e89","hard2","swan","1206","a","stimuli/experiment1a/low_B_111.png","low","A","true"
"","","","","","html-keyboard-response","10","2.1.0","84707","ptx5y7g8e89","hard2","swan","null","null","<div style=""font-size:60px;"">+</div>","","",""
"","","","","","html-keyboard-response","11","2.1.0","85209","ptx5y7g8e89","hard2","swan","null","null","<div style=""font-size:60px;"">+</div>","","",""
"","","","","","categorize-image","12","2.1.0","88315","ptx5y7g8e89","hard2","swan","1103","a","stimuli/experiment1a/low_A_010.png","low","B","false"
"","","","","","html-keyboard-response","13","2.1.0","88818","ptx5y7g8e89","hard2","swan","null","null","<div style=""font-size:60px;"">+</div>","","",""
"","","","","","categorize-image","14","2.1.0","91674","ptx5y7g8e89","hard2","swan","853","b","stimuli/experiment1a/low_A_010.png","low","B","true"
"","","","","","html-keyboard-response","15","2.1.0","92177","ptx5y7g8e89","hard2","swan","null","null","<div style=""font-size:60px;"">+</div>","","",""
"","","","","","html-keyboard-response","16","2.1.0","92680","ptx5y7g8e89","hard2","swan","null","null","<div style=""font-size:60px;"">+</div>","","",""
"","","","","","categorize-image","17","2.1.0","95355","ptx5y7g8e89","hard2","swan","672","a","stimuli/experiment1a/low_B_111.png","low","A","true"
"","","","","","html-keyboard-response","18","2.1.0","95858","ptx5y7g8e89","hard2","swan","null","null","<div style=""font-size:60px;"">+</div>","","",""
"","","","","","html-keyboard-response","19","2.1.0","96360","ptx5y7g8e89","hard2","swan","null","null","<div style=""font-size:60px;"">+</div>","","",""
"","","","","","categorize-image","20","2.1.0","99002","ptx5y7g8e89","hard2","swan","638","a","stimuli/experiment1a/low_B_110.png","low","A","true"
"","","","","","html-keyboard-response","21","2.1.0","99505","ptx5y7g8e89","hard2","swan","null","null","<div style=""font-size:60px;"">+</div>","","",""
"","","","","","html-keyboard-response","22","2.1.0","100007","ptx5y7g8e89","hard2","swan","null","null","<div style=""font-size:60px;"">+</div>","","",""
"","","","","","categorize-image","23","2.1.0","103653","ptx5y7g8e89","hard2","swan","1643","b","stimuli/experiment1a/low_A_001.png","low","B","true"
"","","","","","html-keyboard-response","24","2.1.0","104156","ptx5y7g8e89","hard2","swan","null","null","<div style=""font-size:60px;"">+</div>","","",""
"","","","","","html-keyboard-response","25","2.1.0","104659","ptx5y7g8e89","hard2","swan","null","null","<div style=""font-size:60px;"">+</div>","","",""
"","","","","","categorize-image","26","2.1.0","107640","ptx5y7g8e89","hard2","swan","976","b","stimuli/experiment1a/low_A_000.png","low","B","true"
"","","","","","html-keyboard-response","27","2.1.0","108142","ptx5y7g8e89","hard2","swan","null","null","<div style=""font-size:60px;"">+</div>","","",""
"","","","","","html-keyboard-response","28","2.1.0","108645","ptx5y7g8e89","hard2","swan","null","null","<div style=""font-size:60px;"">+</div>","","",""
"","","","","","categorize-image","29","2.1.0","111269","ptx5y7g8e89","hard2","swan","620","b","stimuli/experiment1a/low_A_000.png","low","B","true"
"","","","","","image-keyboard-response","30","null","113345","ptx5y7g8e89","hard2","swan","2072","q","stimuli/experiment_check.webp","","",""
"","","","","","html-keyboard-response","31","2.1.0","115027","ptx5y7g8e89","hard2","swan","1681","b","<p>Fluffy blesses you. Good job!</p><p>Press any key to continue.</p>","","",""
"","","","","","html-keyboard-response","32","2.1.0","116408","ptx5y7g8e89","hard2","swan","1380","b","<p><strong>TEST BLOCK 1 FINISHED</strong></p><p>Press any key to continue.</p>","","",""
"","","","","","html-keyboard-response","33","2.1.0","116909","ptx5y7g8e89","hard2","swan","null","null","<div style=""font-size:60px;"">+</div>","","",""
"","","","","","html-keyboard-response","34","2.1.0","117412","ptx5y7g8e89","hard2","swan","null","null","<div style=""font-size:60px;"">+</div>","","",""
"","","","","","categorize-image","35","2.1.0","120346","ptx5y7g8e89","hard2","swan","930","b","stimuli/experiment1a/low_A_000.png","low","B","true"
"","","","","","html-keyboard-response","36","2.1.0","120848","ptx5y7g8e89","hard2","swan","null","null","<div style=""font-size:60px;"">+</div>","","",""
"","","","","","html-keyboard-response","37","2.1.0","121351","ptx5y7g8e89","hard2","swan","null","null","<div style=""font-size:60px;"">+</div>","","",""
"","","","","","categorize-image","38","2.1.0","123974","ptx5y7g8e89","hard2","swan","620","a","stimuli/experiment1a/low_B_111.png","low","A","true"
"","","","","","html-keyboard-response","39","2.1.0","124476","ptx5y7g8e89","hard2","swan","null","null","<div style=""font-size:60px;"">+</div>","","",""
"","","","","","html-keyboard-response","40","2.1.0","124979","ptx5y7g8e89","hard2","swan","null","null","<div style=""font-size:60px;"">+</div>","","",""
"","","","","","categorize-image","41","2.1.0","127549","ptx5y7g8e89","hard2","swan","566","a","stimuli/experiment1a/low_B_101.png","low","A","true"
"","","","","","html-keyboard-response","42","2.1.0","128051","ptx5y7g8e89","hard2","swan","null","null","<div style=""font-size:60px;"">+</div>","","",""
"","","","","","html-keyboard-response","43","2.1.0","128554","ptx5y7g8e89","hard2","swan","null","null","<div style=""font-size:60px;"">+</div>","","",""
"","","","","","categorize-image","44","2.1.0","131071","ptx5y7g8e89","hard2","swan","514","a","stimuli/experiment1a/low_B_110.png","low","A","true"
"","","","","","html-keyboard-response","45","2.1.0","131574","ptx5y7g8e89","hard2","swan","null","null","<div style=""font-size:60px;"">+</div>","","",""
"","","","","","html-keyboard-response","46","2.1.0","132076","ptx5y7g8e89","hard2","swan","null","null","<div style=""font-size:60px;"">+</div>","","",""
"","","","","","categorize-image","47","2.1.0","134737","ptx5y7g8e89","hard2","swan","657","b","stimuli/experiment1a/low_A_000.png","low","B","true"
"","","","","","html-keyboard-response","48","2.1.0","135240","ptx5y7g8e89","hard2","swan","null","null","<div style=""font-size:60px;"">+</div>","","",""
"","","","","","html-keyboard-response","49","2.1.0","135743","ptx5y7g8e89","hard2","swan","null","null","<div style=""font-size:60px;"">+</div>","","",""
"","","","","","categorize-image","50","2.1.0","138305","ptx5y7g8e89","hard2","swan","559","a","stimuli/experiment1a/low_B_111.png","low","A","true"
"","","","","","html-keyboard-response","51","2.1.0","138808","ptx5y7g8e89","hard2","swan","null","null","<div style=""font-size:60px;"">+</div>","","",""
"","","","","","html-keyboard-response","52","2.1.0","139311","ptx5y7g8e89","hard2","swan","null","null","<div style=""font-size:60px;"">+</div>","","",""
"","","","","","categorize-image","53","2.1.0","142183","ptx5y7g8e89","hard2","swan","869","b","stimuli/experiment1a/low_A_010.png","low","B","true"
"","","","","","html-keyboard-response","54","2.1.0","142686","ptx5y7g8e89","hard2","swan","null","null","<div style=""font-size:60px;"">+</div>","","",""
"","","","","","html-keyboard-response","55","2.1.0","143188","ptx5y7g8e89","hard2","swan","null","null","<div style=""font-size:60px;"">+</div>","","",""
"","","","","","categorize-image","56","2.1.0","146184","ptx5y7g8e89","hard2","swan","993","b","stimuli/experiment1a/low_A_001.png","low","B","true"
"","","","","","image-keyboard-response","57","null","147897","ptx5y7g8e89","hard2","swan","1711","q","stimuli/experiment_check.webp","","",""
"","","","","","html-keyboard-response","58","2.1.0","148773","ptx5y7g8e89","hard2","swan","875","b","<p>Fluffy blesses you. Good job!</p><p>Press any key to continue.</p>","","",""
"","","","","","html-keyboard-response","59","2.1.0","149546","ptx5y7g8e89","hard2","swan","772","b","<p><strong>TEST BLOCK 2 FINISHED</strong></p><p>Press any key to continue.</p>","","",""
"","","","","","html-keyboard-response","60","2.1.0","150047","ptx5y7g8e89","hard2","swan","null","null","<div style=""font-size:60px;"">+</div>","","",""
"","","","","","html-keyboard-response","61","2.1.0","150549","ptx5y7g8e89","hard2","swan","null","null","<div style=""font-size:60px;"">+</div>","","",""
"","","","","","categorize-image","62","2.1.0","153434","ptx5y7g8e89","hard2","swan","881","b","stimuli/experiment1a/low_A_010.png","low","B","true"
"","","","","","html-keyboard-response","63","2.1.0","153936","ptx5y7g8e89","hard2","swan","null","null","<div style=""font-size:60px;"">+</div>","","",""
"","","","","","html-keyboard-response","64","2.1.0","154439","ptx5y7g8e89","hard2","swan","null","null","<div style=""font-size:60px;"">+</div>","","",""
"","","","","","categorize-image","65","2.1.0","157299","ptx5y7g8e89","hard2","swan","857","a","stimuli/experiment1a/low_B_110.png","low","A","true"
"","","","","","html-keyboard-response","66","2.1.0","157802","ptx5y7g8e89","hard2","swan","null","null","<div style=""font-size:60px;"">+</div>","","",""
"","","","","","html-keyboard-response","67","2.1.0","158305","ptx5y7g8e89","hard2","swan","null","null","<div style=""font-size:60px;"">+</div>","","",""
"","","","","","categorize-image","68","2.1.0","160815","ptx5y7g8e89","hard2","swan","507","b","stimuli/experiment1a/low_A_000.png","low","B","true"
"","","","","","html-keyboard-response","69","2.1.0","161318","ptx5y7g8e89","hard2","swan","null","null","<div style=""font-size:60px;"">+</div>","","",""
"","","","","","html-keyboard-response","70","2.1.0","161820","ptx5y7g8e89","hard2","swan","null","null","<div style=""font-size:60px;"">+</div>","","",""
"","","","","","categorize-image","71","2.1.0","164284","ptx5y7g8e89","hard2","swan","461","a","stimuli/experiment1a/low_B_111.png","low","A","true"
"","","","","","html-keyboard-response","72","2.1.0","164786","ptx5y7g8e89","hard2","swan","null","null","<div style=""font-size:60px;"">+</div>","","",""
"","","","","","html-keyboard-response","73","2.1.0","165289","ptx5y7g8e89","hard2","swan","null","null","<div style=""font-size:60px;"">+</div>","","",""
"","","","","","categorize-image","74","2.1.0","168044","ptx5y7g8e89","hard2","swan","751","a","stimuli/experiment1a/low_B_101.png","low","A","true"
"","","","","","html-keyboard-response","75","2.1.0","168547","ptx5y7g8e89","hard2","swan","null","null","<div style=""font-size:60px;"">+</div>","","",""
"","","","","","html-keyboard-response","76","2.1.0","169050","ptx5y7g8e89","hard2","swan","null","null","<div style=""font-size:60px;"">+</div>","","",""
"","","","","","categorize-image","77","2.1.0","171531","ptx5y7g8e89","hard2","swan","477","b","stimuli/experiment1a/low_A_000.png","low","B","true"
"","","","","","html-keyboard-response","78","2.1.0","172034","ptx5y7g8e89","hard2","swan","null","null","<div style=""font-size:60px;"">+</div>","","",""
"","","","","","html-keyboard-response","79","2.1.0","172537","ptx5y7g8e89","hard2","swan","null","null","<div style=""font-size:60px;"">+</div>","","",""
"","","","","","categorize-image","80","2.1.0","174965","ptx5y7g8e89","hard2","swan","425","a","stimuli/experiment1a/low_B_111.png","low","A","true"
"","","","","","html-keyboard-response","81","2.1.0","175468","ptx5y7g8e89","hard2","swan","null","null","<div style=""font-size:60px;"">+</div>","","",""
"","","","","","html-keyboard-response","82","2.1.0","175971","ptx5y7g8e89","hard2","swan","null","null","<div style=""font-size:60px;"">+</div>","","",""
"","","","","","categorize-image","83","2.1.0","179065","ptx5y7g8e89","hard2","swan","1090","b","stimuli/experiment1a/low_A_001.png","low","B","true"
"","","","","","image-keyboard-response","84","null","180547","ptx5y7g8e89","hard2","swan","1480","q","stimuli/experiment_check.webp","","",""
"","","","","","html-keyboard-response","85","2.1.0","181771","ptx5y7g8e89","hard2","swan","1223","a","<p>Fluffy blesses you. Good job!</p><p>Press any key to continue.</p>","","",""
"","","","","","html-keyboard-response","86","2.1.0","182638","ptx5y7g8e89","hard2","swan","866","a","<p><strong>TEST BLOCK 3 FINISHED</strong></p><p>Press any key to continue.</p>","","",""
"","","","","","html-keyboard-response","87","2.1.0","183140","ptx5y7g8e89","hard2","swan","null","null","<div style=""font-size:60px;"">+</div>","","",""
"","","","","","html-keyboard-response","88","2.1.0","183642","ptx5y7g8e89","hard2","swan","null","null","<div style=""font-size:60px;"">+</div>","","",""
"","","","","","categorize-image","89","2.1.0","186537","ptx5y7g8e89","hard2","swan","892","b","stimuli/experiment1a/low_A_001.png","low","B","true"
"","","","","","html-keyboard-response","90","2.1.0","187040","ptx5y7g8e89","hard2","swan","null","null","<div style=""font-size:60px;"">+</div>","","",""
"","","","","","html-keyboard-response","91","2.1.0","187543","ptx5y7g8e89","hard2","swan","null","null","<div style=""font-size:60px;"">+</div>","","",""
"","","","","","categorize-image","92","2.1.0","189944","ptx5y7g8e89","hard2","swan","398","a","stimuli/experiment1a/low_B_111.png","low","A","true"
"","","","","","html-keyboard-response","93","2.1.0","190447","ptx5y7g8e89","hard2","swan","null","null","<div style=""font-size:60px;"">+</div>","","",""
"","","","","","html-keyboard-response","94","2.1.0","190949","ptx5y7g8e89","hard2","swan","null","null","<div style=""font-size:60px;"">+</div>","","",""
"","","","","","categorize-image","95","2.1.0","193726","ptx5y7g8e89","hard2","swan","774","b","stimuli/experiment1a/low_A_010.png","low","B","true"
"","","","","","html-keyboard-response","96","2.1.0","194229","ptx5y7g8e89","hard2","swan","null","null","<div style=""font-size:60px;"">+</div>","","",""
"","","","","","html-keyboard-response","97","2.1.0","194731","ptx5y7g8e89","hard2","swan","null","null","<div style=""font-size:60px;"">+</div>","","",""
"","","","","","categorize-image","98","2.1.0","197179","ptx5y7g8e89","hard2","swan","444","a","stimuli/experiment1a/low_B_110.png","low","A","true"
"","","","","","html-keyboard-response","99","2.1.0","197681","ptx5y7g8e89","hard2","swan","null","null","<div style=""font-size:60px;"">+</div>","","",""
"","","","","","html-keyboard-response","100","2.1.0","198184","ptx5y7g8e89","hard2","swan","null","null","<div style=""font-size:60px;"">+</div>","","",""
"","","","","","categorize-image","101","2.1.0","200632","ptx5y7g8e89","hard2","swan","445","b","stimuli/experiment1a/low_A_000.png","low","B","true"
"","","","","","html-keyboard-response","102","2.1.0","201136","ptx5y7g8e89","hard2","swan","null","null","<div style=""font-size:60px;"">+</div>","","",""
"","","","","","html-keyboard-response","103","2.1.0","201638","ptx5y7g8e89","hard2","swan","null","null","<div style=""font-size:60px;"">+</div>","","",""
"","","","","","categorize-image","104","2.1.0","204777","ptx5y7g8e89","hard2","swan","1135","b","stimuli/experiment1a/low_A_000.png","low","B","true"
"","","","","","html-keyboard-response","105","2.1.0","205280","ptx5y7g8e89","hard2","swan","null","null","<div style=""font-size:60px;"">+</div>","","",""
"","","","","","html-keyboard-response","106","2.1.0","205782","ptx5y7g8e89","hard2","swan","null","null","<div style=""font-size:60px;"">+</div>","","",""
"","","","","","categorize-image","107","2.1.0","208472","ptx5y7g8e89","hard2","swan","686","a","stimuli/experiment1a/low_B_111.png","low","A","true"
"","","","","","html-keyboard-response","108","2.1.0","208974","ptx5y7g8e89","hard2","swan","null","null","<div style=""font-size:60px;"">+</div>","","",""
"","","","","","html-keyboard-response","109","2.1.0","209477","ptx5y7g8e89","hard2","swan","null","null","<div style=""font-size:60px;"">+</div>","","",""
"","","","","","categorize-image","110","2.1.0","211980","ptx5y7g8e89","hard2","swan","501","a","stimuli/experiment1a/low_B_101.png","low","A","true"
"","","","","","image-keyboard-response","111","null","213508","ptx5y7g8e89","hard2","swan","1525","q","stimuli/experiment_check.webp","","",""
"","","","","","html-keyboard-response","112","2.1.0","214270","ptx5y7g8e89","hard2","swan","761","b","<p>Fluffy blesses you. Good job!</p><p>Press any key to continue.</p>","","",""
"","","","","","html-keyboard-response","113","2.1.0","214705","ptx5y7g8e89","hard2","swan","435","b","<p><strong>TEST BLOCK 4 FINISHED</strong></p><p>Press any key to continue.</p>","","",""
"","","","","","html-keyboard-response","114","2.1.0","215206","ptx5y7g8e89","hard2","swan","null","null","<div style=""font-size:60px;"">+</div>","","",""
"","","","","","html-keyboard-response","115","2.1.0","215709","ptx5y7g8e89","hard2","swan","null","null","<div style=""font-size:60px;"">+</div>","","",""
"","","","","","categorize-image","116","2.1.0","218794","ptx5y7g8e89","hard2","swan","1081","b","stimuli/experiment1a/low_A_000.png","low","B","true"
"","","","","","html-keyboard-response","117","2.1.0","219296","ptx5y7g8e89","hard2","swan","null","null","<div style=""font-size:60px;"">+</div>","","",""
"","","","","","html-keyboard-response","118","2.1.0","219798","ptx5y7g8e89","hard2","swan","null","null","<div style=""font-size:60px;"">+</div>","","",""
"","","","","","categorize-image","119","2.1.0","222159","ptx5y7g8e89","hard2","swan","357","a","stimuli/experiment1a/low_B_111.png","low","A","true"
"","","","","","html-keyboard-response","120","2.1.0","222661","ptx5y7g8e89","hard2","swan","null","null","<div style=""font-size:60px;"">+</div>","","",""
"","","","","","html-keyboard-response","121","2.1.0","223164","ptx5y7g8e89","hard2","swan","null","null","<div style=""font-size:60px;"">+</div>","","",""
"","","","","","categorize-image","122","2.1.0","225699","ptx5y7g8e89","hard2","swan","531","a","stimuli/experiment1a/low_B_111.png","low","A","true"
"","","","","","html-keyboard-response","123","2.1.0","226201","ptx5y7g8e89","hard2","swan","null","null","<div style=""font-size:60px;"">+</div>","","",""
"","","","","","html-keyboard-response","124","2.1.0","226704","ptx5y7g8e89","hard2","swan","null","null","<div style=""font-size:60px;"">+</div>","","",""
"","","","","","categorize-image","125","2.1.0","229254","ptx5y7g8e89","hard2","swan","547","b","stimuli/experiment1a/low_A_000.png","low","B","true"
"","","","","","html-keyboard-response","126","2.1.0","229757","ptx5y7g8e89","hard2","swan","null","null","<div style=""font-size:60px;"">+</div>","","",""
"","","","","","html-keyboard-response","127","2.1.0","230259","ptx5y7g8e89","hard2","swan","null","null","<div style=""font-size:60px;"">+</div>","","",""
"","","","","","categorize-image","128","2.1.0","233203","ptx5y7g8e89","hard2","swan","941","a","stimuli/experiment1a/low_B_101.png","low","A","true"
"","","","","","html-keyboard-response","129","2.1.0","233707","ptx5y7g8e89","hard2","swan","null","null","<div style=""font-size:60px;"">+</div>","","",""
"","","","","","html-keyboard-response","130","2.1.0","234209","ptx5y7g8e89","hard2","swan","null","null","<div style=""font-size:60px;"">+</div>","","",""
"","","","","","categorize-image","131","2.1.0","236852","ptx5y7g8e89","hard2","swan","639","b","stimuli/experiment1a/low_A_010.png","low","B","true"
"","","","","","html-keyboard-response","132","2.1.0","237355","ptx5y7g8e89","hard2","swan","null","null","<div style=""font-size:60px;"">+</div>","","",""
"","","","","","html-keyboard-response","133","2.1.0","237856","ptx5y7g8e89","hard2","swan","null","null","<div style=""font-size:60px;"">+</div>","","",""
"","","","","","categorize-image","134","2.1.0","240504","ptx5y7g8e89","hard2","swan","645","a","stimuli/experiment1a/low_B_110.png","low","A","true"
"","","","","","html-keyboard-response","135","2.1.0","241007","ptx5y7g8e89","hard2","swan","null","null","<div style=""font-size:60px;"">+</div>","","",""
"","","","","","html-keyboard-response","136","2.1.0","241509","ptx5y7g8e89","hard2","swan","null","null","<div style=""font-size:60px;"">+</div>","","",""
"","","","","","categorize-image","137","2.1.0","244833","ptx5y7g8e89","hard2","swan","1320","b","stimuli/experiment1a/low_A_001.png","low","B","true"
"","","","","","image-keyboard-response","138","null","246391","ptx5y7g8e89","hard2","swan","1556","q","stimuli/experiment_check.webp","","",""
"","","","","","html-keyboard-response","139","2.1.0","247309","ptx5y7g8e89","hard2","swan","918","b","<p>Fluffy blesses you. Good job!</p><p>Press any key to continue.</p>","","",""
"","","","","","html-keyboard-response","140","2.1.0","247731","ptx5y7g8e89","hard2","swan","421","b","<p><strong>TEST BLOCK 5 FINISHED</strong></p><p>Press any key to continue.</p>","","",""
"","","","","","html-keyboard-response","141","2.1.0","248233","ptx5y7g8e89","hard2","swan","null","null","<div style=""font-size:60px;"">+</div>","","",""
"","","","","","html-keyboard-response","142","2.1.0","248735","ptx5y7g8e89","hard2","swan","null","null","<div style=""font-size:60px;"">+</div>","","",""
"","","","","","categorize-image","143","2.1.0","251699","ptx5y7g8e89","hard2","swan","960","b","stimuli/experiment1a/low_A_010.png","low","B","true"
"","","","","","html-keyboard-response","144","2.1.0","252201","ptx5y7g8e89","hard2","swan","null","null","<div style=""font-size:60px;"">+</div>","","",""
"","","","","","html-keyboard-response","145","2.1.0","252704","ptx5y7g8e89","hard2","swan","null","null","<div style=""font-size:60px;"">+</div>","","",""
"","","","","","categorize-image","146","2.1.0","256204","ptx5y7g8e89","hard2","swan","1497","b","stimuli/experiment1a/low_A_000.png","low","B","true"
"","","","","","html-keyboard-response","147","2.1.0","256707","ptx5y7g8e89","hard2","swan","null","null","<div style=""font-size:60px;"">+</div>","","",""
"","","","","","html-keyboard-response","148","2.1.0","257209","ptx5y7g8e89","hard2","swan","null","null","<div style=""font-size:60px;"">+</div>","","",""
"","","","","","categorize-image","149","2.1.0","259734","ptx5y7g8e89","hard2","swan","522","a","stimuli/experiment1a/low_B_111.png","low","A","true"
"","","","","","html-keyboard-response","150","2.1.0","260236","ptx5y7g8e89","hard2","swan","null","null","<div style=""font-size:60px;"">+</div>","","",""
"","","","","","html-keyboard-response","151","2.1.0","260738","ptx5y7g8e89","hard2","swan","null","null","<div style=""font-size:60px;"">+</div>","","",""
"","","","","","categorize-image","152","2.1.0","263505","ptx5y7g8e89","hard2","swan","763","b","stimuli/experiment1a/low_A_001.png","low","B","true"
"","","","","","html-keyboard-response","153","2.1.0","264008","ptx5y7g8e89","hard2","swan","null","null","<div style=""font-size:60px;"">+</div>","","",""
"","","","","","html-keyboard-response","154","2.1.0","264511","ptx5y7g8e89","hard2","swan","null","null","<div style=""font-size:60px;"">+</div>","","",""
"","","","","","categorize-image","155","2.1.0","267204","ptx5y7g8e89","hard2","swan","690","a","stimuli/experiment1a/low_B_101.png","low","A","true"
"","","","","","html-keyboard-response","156","2.1.0","267706","ptx5y7g8e89","hard2","swan","null","null","<div style=""font-size:60px;"">+</div>","","",""
"","","","","","html-keyboard-response","157","2.1.0","268209","ptx5y7g8e89","hard2","swan","null","null","<div style=""font-size:60px;"">+</div>","","",""
"","","","","","categorize-image","158","2.1.0","271037","ptx5y7g8e89","hard2","swan","824","a","stimuli/experiment1a/low_B_111.png","low","A","true"
"","","","","","html-keyboard-response","159","2.1.0","271539","ptx5y7g8e89","hard2","swan","null","null","<div style=""font-size:60px;"">+</div>","","",""
"","","","","","html-keyboard-response","160","2.1.0","272042","ptx5y7g8e89","hard2","swan","null","null","<div style=""font-size:60px;"">+</div>","","",""
"","","","","","categorize-image","161","2.1.0","274651","ptx5y7g8e89","hard2","swan","606","a","stimuli/experiment1a/low_B_110.png","low","A","true"
"","","","","","html-keyboard-response","162","2.1.0","275154","ptx5y7g8e89","hard2","swan","null","null","<div style=""font-size:60px;"">+</div>","","",""
"","","","","","html-keyboard-response","163","2.1.0","275657","ptx5y7g8e89","hard2","swan","null","null","<div style=""font-size:60px;"">+</div>","","",""
"","","","","","categorize-image","164","2.1.0","279486","ptx5y7g8e89","hard2","swan","1826","b","stimuli/experiment1a/low_A_000.png","low","B","true"
"","","","","","image-keyboard-response","165","null","280799","ptx5y7g8e89","hard2","swan","1311","q","stimuli/experiment_check.webp","","",""
"","","","","","html-keyboard-response","166","2.1.0","281670","ptx5y7g8e89","hard2","swan","870","b","<p>Fluffy blesses you. Good job!</p><p>Press any key to continue.</p>","","",""
"","","","","","html-keyboard-response","167","2.1.0","282300","ptx5y7g8e89","hard2","swan","630","b","<p><strong>TEST BLOCK 6 FINISHED</strong></p><p>Press any key to continue.</p>","","",""
"","","","","","survey-text","168","2.1.0","308908","ptx5y7g8e89","hard2","swan","26601","{""Language"":""Yes"",""Art_background"":""No"",""Strategy"":""I think category A contained light pink\n""}","","","",""
"","","","","","survey-text","169","2.1.0","319629","ptx5y7g8e89","hard2","swan","10717","{""Issues"":""no"",""Why_experiment"":""To see how well people learn categories"",""Extra_info"":""""}","","","",""
