"success","timeout","failed_images","failed_audio","failed_video","trial_type","trial_index","plugin_version","time_elapsed","random_id","condition","participant","rt","response","stimulus","nameability","correct_category","correct"
"true","false","[]","[]","[]","preload","0","2.1.0","86","pw1k6a14zsv","easy2","rabbit","","","","","",""
"true","","","","","fullscreen","1","2.1.0","3694","pw1k6a14zsv","easy2","rabbit","2604","","","","",""
"","","","","","survey-text","2","2.1.0","6760","pw1k6a14zsv","easy2","rabbit","3061","{""participant_id"":""rabbit""}","","","",""
"","","","","","html-keyboard-response","3","2.1.0","22133","pw1k6a14zsv","easy2","rabbit","15372"," ","
     <p> Welcome to the experiment! </p>

     <p> In this experiment, you will see a series of images. </p>
     <p> Your task is to categorize each image into one of two categories (A and B) as quickly and accurately as possible. </p>
     <p> You will receive feedback after each response. If you get the category wrong, you will be asked to choose the category again</p>
   ","","",""
"","","","","","html-keyboard-response","4","2.1.0","22635","pw1k6a14zsv","easy2","rabbit","null","null","<div style=""font-size:60px;"">+</div>","","",""
"","","","","","html-keyboard-response","5","2.1.0","23138","pw1k6a14zsv","easy2","rabbit","null","null","<div style=""font-size:60px;"">+</div>","","",""
"","","","","","categorize-image","6","2.1.0","28098","pw1k6a14zsv","easy2","rabbit","2954","a","stimuli/experiment1a/high_A_010.png","high","B","false"
"","","","","","html-keyboard-response","7","2.1.0","28601","pw1k6a14zsv","easy2","rabbit","null","null","<div style=""font-size:60px;"">+</div>","","",""
"","","","","","categorize-image","8","2.1.0","37504","pw1k6a14zsv","easy2","rabbit","6899","a","stimuli/experiment1a/high_A_010.png","high","B","false"
"","","","","","html-keyboard-response","9","2.1.0","38007","pw1k6a14zsv","easy2","rabbit","null","null","<div style=""font-size:60px;"">+</div>","","",""
"","","","","","categorize-image","10","2.1.0","42380","pw1k6a14zsv","easy2","rabbit","2368","b","stimuli/experiment1a/high_A_010.png","high","B","true"
"","","","","","html-keyboard-response","11","2.1.0","42884","pw1k6a14zsv","easy2","rabbit","null","null","<div style=""font-size:60px;"">+</div>","","",""
"","","","","","html-keyboard-response","12","2.1.0","43386","pw1k6a14zsv","easy2","rabbit","null","null","<div style=""font-size:60px;"">+</div>","","",""
"","","","","","categorize-image","13","2.1.0","49605","pw1k6a14zsv","easy2","rabbit","4215","a","stimuli/experiment1a/high_A_000.png","high","B","false"
"","","","","","html-keyboard-response","14","2.1.0","50108","pw1k6a14zsv","easy2","rabbit","null","null","<div style=""font-size:60px;"">+</div>","","",""
"","","","","","categorize-image","15","2.1.0","52943","pw1k6a14zsv","easy2","rabbit","831","b","stimuli/experiment1a/high_A_000.png","high","B","true"
"","","","","","html-keyboard-response","16","2.1.0","53446","pw1k6a14zsv","easy2","rabbit","null","null","<div style=""font-size:60px;"">+</div>","","",""
"","","","","","html-keyboard-response","17","2.1.0","53947","pw1k6a14zsv","easy2","rabbit","null","null","<div style=""font-size:60px;"">+</div>","","",""
"","","","","","categorize-image","18","2.1.0","56988","pw1k6a14zsv","easy2","rabbit","1038","b","stimuli/experiment1a/high_B_110.png","high","A","false"
"","","","","","html-keyboard-response","19","2.1.0","57491","pw1k6a14zsv","easy2","rabbit","null","null","<div style=""font-size:60px;"">+</div>","","",""
"","","","","","categorize-image","20","2.1.0","62064","pw1k6a14zsv","easy2","rabbit","2569","a","stimuli/experiment1a/high_B_110.png","high","A","true"
"","","","","","html-keyboard-response","21","2.1.0","62567","pw1k6a14zsv","easy2","rabbit","null","null","<div style=""font-size:60px;"">+</div>","","",""
"","","","","","html-keyboard-response","22","2.1.0","63069","pw1k6a14zsv","easy2","rabbit","null","null","<div style=""font-size:60px;"">+</div>","","",""
"","","","","","categorize-image","23","2.1.0","66987","pw1k6a14zsv","easy2","rabbit","1914","a","stimuli/experiment1a/high_B_111.png","high","A","true"
"","","","","","html-keyboard-response","24","2.1.0","67489","pw1k6a14zsv","easy2","rabbit","null","null","<div style=""font-size:60px;"">+</div>","","",""
"","","","","","html-keyboard-response","25","2.1.0","67991","pw1k6a14zsv","easy2","rabbit","null","null","<div style=""font-size:60px;"">+</div>","","",""
"","","","","","categorize-image","26","2.1.0","71029","pw1k6a14zsv","easy2","rabbit","1034","a","stimuli/experiment1a/high_B_111.png","high","A","true"
"","","","","","html-keyboard-response","27","2.1.0","71533","pw1k6a14zsv","easy2","rabbit","null","null","<div style=""font-size:60px;"">+</div>","","",""
"","","","","","html-keyboard-response","28","2.1.0","72035","pw1k6a14zsv","easy2","rabbit","null","null","<div style=""font-size:60px;"">+</div>","","",""
"","","","","","categorize-image","29","2.1.0","76832","pw1k6a14zsv","easy2","rabbit","2794","a","stimuli/experiment1a/high_B_101.png","high","A","true"
"","","","","","html-keyboard-response","30","2.1.0","77336","pw1k6a14zsv","easy2","rabbit","null","null","<div style=""font-size:60px;"">+</div>","","",""
"","","","","","html-keyboard-response","31","2.1.0","77838","pw1k6a14zsv","easy2","rabbit","null","null","<div style=""font-size:60px;"">+</div>","","",""
"","","","","","categorize-image","32","2.1.0","81396","pw1k6a14zsv","easy2","rabbit","1553","a","stimuli/experiment1a/high_A_001.png","high","B","false"
"","","","","","html-keyboard-response","33","2.1.0","81898","pw1k6a14zsv","easy2","rabbit","null","null","<div style=""font-size:60px;"">+</div>","","",""
"","","","","","categorize-image","34","2.1.0","84965","pw1k6a14zsv","easy2","rabbit","1062","b","stimuli/experiment1a/high_A_001.png","high","B","true"
"","","","","","html-keyboard-response","35","2.1.0","85468","pw1k6a14zsv","easy2","rabbit","null","null","<div style=""font-size:60px;"">+</div>","","",""
"","","","","","html-keyboard-response","36","2.1.0","85970","pw1k6a14zsv","easy2","rabbit","null","null","<div style=""font-size:60px;"">+</div>","","",""
"","","","","","categorize-image","37","2.1.0","89056","pw1k6a14zsv","easy2","rabbit","1082","b","stimuli/experiment1a/high_A_000.png","high","B","true"
"","","","","","image-keyboard-response","38","null","91518","pw1k6a14zsv","easy2","rabbit","2457","q","stimuli/experiment_check.webp","","",""
"","","","","","html-keyboard-response","39","2.1.0","93521","pw1k6a14zsv","easy2","rabbit","null","null","<p>Fluffy blesses you. Good job!</p><p>Press any key to continue.</p>","","",""
"","","","","","html-keyboard-response","40","2.1.0","95863","pw1k6a14zsv","easy2","rabbit","2341"," ","<p><strong>TEST BLOCK 1 FINISHED</strong></p><p>Press any key to continue.</p>","","",""
"","","","","","html-keyboard-response","41","2.1.0","96365","pw1k6a14zsv","easy2","rabbit","null","null","<div style=""font-size:60px;"">+</div>","","",""
"","","","","","html-keyboard-response","42","2.1.0","96868","pw1k6a14zsv","easy2","rabbit","null","null","<div style=""font-size:60px;"">+</div>","","",""
"","","","","","categorize-image","43","2.1.0","102170","pw1k6a14zsv","easy2","rabbit","3298","b","stimuli/experiment1a/high_A_000.png","high","B","true"
"","","","","","html-keyboard-response","44","2.1.0","102674","pw1k6a14zsv","easy2","rabbit","null","null","<div style=""font-size:60px;"">+</div>","","",""
"","","","","","html-keyboard-response","45","2.1.0","103175","pw1k6a14zsv","easy2","rabbit","null","null","<div style=""font-size:60px;"">+</div>","","",""
"","","","","","categorize-image","46","2.1.0","106384","pw1k6a14zsv","easy2","rabbit","1204","b","stimuli/experiment1a/high_A_010.png","high","B","true"
"","","","","","html-keyboard-response","47","2.1.0","106887","pw1k6a14zsv","easy2","rabbit","null","null","<div style=""font-size:60px;"">+</div>","","",""
"","","","","","html-keyboard-response","48","2.1.0","107388","pw1k6a14zsv","easy2","rabbit","null","null","<div style=""font-size:60px;"">+</div>","","",""
"","","","","","categorize-image","49","2.1.0","110562","pw1k6a14zsv","easy2","rabbit","1171","a","stimuli/experiment1a/high_B_111.png","high","A","true"
"","","","","","html-keyboard-response","50","2.1.0","111065","pw1k6a14zsv","easy2","rabbit","null","null","<div style=""font-size:60px;"">+</div>","","",""
"","","","","","html-keyboard-response","51","2.1.0","111566","pw1k6a14zsv","easy2","rabbit","null","null","<div style=""font-size:60px;"">+</div>","","",""
"","","","","","categorize-image","52","2.1.0","116255","pw1k6a14zsv","easy2","rabbit","2684","a","stimuli/experiment1a/high_B_110.png","high","A","true"
"","","","","","html-keyboard-response","53","2.1.0","116758","pw1k6a14zsv","easy2","rabbit","null","null","<div style=""font-size:60px;"">+</div>","","",""
"","","","","","html-keyboard-response","54","2.1.0","117260","pw1k6a14zsv","easy2","rabbit","null","null","<div style=""font-size:60px;"">+</div>","","",""
"","","","","","categorize-image","55","2.1.0","120400","pw1k6a14zsv","easy2","rabbit","1137","b","stimuli/experiment1a/high_A_000.png","high","B","true"
"","","","","","html-keyboard-response","56","2.1.0","120902","pw1k6a14zsv","easy2","rabbit","null","null","<div style=""font-size:60px;"">+</div>","","",""
"","","","","","html-keyboard-response","57","2.1.0","121405","pw1k6a14zsv","easy2","rabbit","null","null","<div style=""font-size:60px;"">+</div>","","",""
"","","","","","categorize-image","58","2.1.0","124281","pw1k6a14zsv","easy2","rabbit","873","a","stimuli/experiment1a/high_B_101.png","high","A","true"
"","","","","","html-keyboard-response","59","2.1.0","124784","pw1k6a14zsv","easy2","rabbit","null","null","<div style=""font-size:60px;"">+</div>","","",""
"","","","","","html-keyboard-response","60","2.1.0","125286","pw1k6a14zsv","easy2","rabbit","null","null","<div style=""font-size:60px;"">+</div>","","",""
"","","","","","categorize-image","61","2.1.0","128143","pw1k6a14zsv","easy2","rabbit","853","a","stimuli/experiment1a/high_B_111.png","high","A","true"
"","","","","","html-keyboard-response","62","2.1.0","128646","pw1k6a14zsv","easy2","rabbit","null","null","<div style=""font-size:60px;"">+</div>","","",""
"","","","","","html-keyboard-response","63","2.1.0","129149","pw1k6a14zsv","easy2","rabbit","null","null","<div style=""font-size:60px;"">+</div>","","",""
"","","","","","categorize-image","64","2.1.0","132609","pw1k6a14zsv","easy2","rabbit","1456","b","stimuli/experiment1a/high_A_001.png","high","B","true"
"","","","","","image-keyboard-response","65","null","134217","pw1k6a14zsv","easy2","rabbit","1607","q","stimuli/experiment_check.webp","","",""
"","","","","","html-keyboard-response","66","2.1.0","135592","pw1k6a14zsv","easy2","rabbit","1374"," ","<p>Fluffy blesses you. Good job!</p><p>Press any key to continue.</p>","","",""
"","","","","","html-keyboard-response","67","2.1.0","136213","pw1k6a14zsv","easy2","rabbit","619"," ","<p><strong>TEST BLOCK 2 FINISHED</strong></p><p>Press any key to continue.</p>","","",""
"","","","","","html-keyboard-response","68","2.1.0","136714","pw1k6a14zsv","easy2","rabbit","null","null","<div style=""font-size:60px;"">+</div>","","",""
"","","","","","html-keyboard-response","69","2.1.0","137217","pw1k6a14zsv","easy2","rabbit","null","null","<div style=""font-size:60px;"">+</div>","","",""
"","","","","","categorize-image","70","2.1.0","140465","pw1k6a14zsv","easy2","rabbit","1243","b","stimuli/experiment1a/high_B_110.png","high","A","false"
"","","","","","html-keyboard-response","71","2.1.0","140967","pw1k6a14zsv","easy2","rabbit","null","null","<div style=""font-size:60px;"">+</div>","","",""
"","","","","","categorize-image","72","2.1.0","143987","pw1k6a14zsv","easy2","rabbit","1017","a","stimuli/experiment1a/high_B_110.png","high","A","true"
"","","","","","html-keyboard-response","73","2.1.0","144490","pw1k6a14zsv","easy2","rabbit","null","null","<div style=""font-size:60px;"">+</div>","","",""
"","","","","","html-keyboard-response","74","2.1.0","144992","pw1k6a14zsv","easy2","rabbit","null","null","<div style=""font-size:60px;"">+</div>","","",""
"","","","","","categorize-image","75","2.1.0","148379","pw1k6a14zsv","easy2","rabbit","1383","a","stimuli/experiment1a/high_B_111.png","high","A","true"
"","","","","","html-keyboard-response","76","2.1.0","148881","pw1k6a14zsv","easy2","rabbit","null","null","<div style=""font-size:60px;"">+</div>","","",""
"","","","","","html-keyboard-response","77","2.1.0","149383","pw1k6a14zsv","easy2","rabbit","null","null","<div style=""font-size:60px;"">+</div>","","",""
"","","","","","categorize-image","78","2.1.0","152877","pw1k6a14zsv","easy2","rabbit","1490","b","stimuli/experiment1a/high_A_000.png","high","B","true"
"","","","","","html-keyboard-response","79","2.1.0","153380","pw1k6a14zsv","easy2","rabbit","null","null","<div style=""font-size:60px;"">+</div>","","",""
"","","","","","html-keyboard-response","80","2.1.0","153882","pw1k6a14zsv","easy2","rabbit","null","null","<div style=""font-size:60px;"">+</div>","","",""
"","","","","","categorize-image","81","2.1.0","166335","pw1k6a14zsv","easy2","rabbit","10449","b","stimuli/experiment1a/high_A_000.png","high","B","true"
"","","","","","html-keyboard-response","82","2.1.0","166838","pw1k6a14zsv","easy2","rabbit","null","null","<div style=""font-size:60px;"">+</div>","","",""
"","","","","","html-keyboard-response","83","2.1.0","167340","pw1k6a14zsv","easy2","rabbit","null","null","<div style=""font-size:60px;"">+</div>","","",""
"","","","","","categorize-image","84","2.1.0","170484","pw1k6a14zsv","easy2","rabbit","1140","a","stimuli/experiment1a/high_B_111.png","high","A","true"
"","","","","","html-keyboard-response","85","2.1.0","170988","pw1k6a14zsv","easy2","rabbit","null","null","<div style=""font-size:60px;"">+</div>","","",""
"","","","","","html-keyboard-response","86","2.1.0","171489","pw1k6a14zsv","easy2","rabbit","null","null","<div style=""font-size:60px;"">+</div>","","",""
"","","","","","categorize-image","87","2.1.0","174950","pw1k6a14zsv","easy2","rabbit","1457","a","stimuli/experiment1a/high_B_101.png","high","A","true"
"","","","","","html-keyboard-response","88","2.1.0","175453","pw1k6a14zsv","easy2","rabbit","null","null","<div style=""font-size:60px;"">+</div>","","",""
"","","","","","html-keyboard-response","89","2.1.0","175955","pw1k6a14zsv","easy2","rabbit","null","null","<div style=""font-size:60px;"">+</div>","","",""
"","","","","","categorize-image","90","2.1.0","181055","pw1k6a14zsv","easy2","rabbit","3096","b","stimuli/experiment1a/high_A_010.png","high","B","true"
"","","","","","html-keyboard-response","91","2.1.0","181558","pw1k6a14zsv","easy2","rabbit","null","null","<div style=""font-size:60px;"">+</div>","","",""
"","","","","","html-keyboard-response","92","2.1.0","182060","pw1k6a14zsv","easy2","rabbit","null","null","<div style=""font-size:60px;"">+</div>","","",""
"","","","","","categorize-image","93","2.1.0","185390","pw1k6a14zsv","easy2","rabbit","1327","b","stimuli/experiment1a/high_A_001.png","high","B","true"
"","","","","","image-keyboard-response","94","null","186488","pw1k6a14zsv","easy2","rabbit","1095","q","stimuli/experiment_check.webp","","",""
"","","","","","html-keyboard-response","95","2.1.0","188291","pw1k6a14zsv","easy2","rabbit","1802"," ","<p>Fluffy blesses you. Good job!</p><p>Press any key to continue.</p>","","",""
"","","","","","html-keyboard-response","96","2.1.0","189492","pw1k6a14zsv","easy2","rabbit","1201"," ","<p><strong>TEST BLOCK 3 FINISHED</strong></p><p>Press any key to continue.</p>","","",""
"","","","","","html-keyboard-response","97","2.1.0","189994","pw1k6a14zsv","easy2","rabbit","null","null","<div style=""font-size:60px;"">+</div>","","",""
"","","","","","html-keyboard-response","98","2.1.0","190496","pw1k6a14zsv","easy2","rabbit","null","null","<div style=""font-size:60px;"">+</div>","","",""
"","","","","","categorize-image","99","2.1.0","193899","pw1k6a14zsv","easy2","rabbit","1399","a","stimuli/experiment1a/high_B_111.png","high","A","true"
"","","","","","html-keyboard-response","100","2.1.0","194402","pw1k6a14zsv","easy2","rabbit","null","null","<div style=""font-size:60px;"">+</div>","","",""
"","","","","","html-keyboard-response","101","2.1.0","194904","pw1k6a14zsv","easy2","rabbit","null","null","<div style=""font-size:60px;"">+</div>","","",""
"","","","","","categorize-image","102","2.1.0","197730","pw1k6a14zsv","easy2","rabbit","822","b","stimuli/experiment1a/high_A_000.png","high","B","true"
"","","","","","html-keyboard-response","103","2.1.0","198234","pw1k6a14zsv","easy2","rabbit","null","null","<div style=""font-size:60px;"">+</div>","","",""
"","","","","","html-keyboard-response","104","2.1.0","198735","pw1k6a14zsv","easy2","rabbit","null","null","<div style=""font-size:60px;"">+</div>","","",""
"","","","","","categorize-image","105","2.1.0","201355","pw1k6a14zsv","easy2","rabbit","616","b","stimuli/experiment1a/high_A_001.png","high","B","true"
"","","","","","html-keyboard-response","106","2.1.0","201859","pw1k6a14zsv","easy2","rabbit","null","null","<div style=""font-size:60px;"">+</div>","","",""
"","","","","","html-keyboard-response","107","2.1.0","202361","pw1k6a14zsv","easy2","rabbit","null","null","<div style=""font-size:60px;"">+</div>","","",""
"","","","","","categorize-image","108","2.1.0","205354","pw1k6a14zsv","easy2","rabbit","990","b","stimuli/experiment1a/high_A_000.png","high","B","true"
"","","","","","html-keyboard-response","109","2.1.0","205857","pw1k6a14zsv","easy2","rabbit","null","null","<div style=""font-size:60px;"">+</div>","","",""
"","","","","","html-keyboard-response","110","2.1.0","206359","pw1k6a14zsv","easy2","rabbit","null","null","<div style=""font-size:60px;"">+</div>","","",""
"","","","","","categorize-image","111","2.1.0","209614","pw1k6a14zsv","easy2","rabbit","1251","a","stimuli/experiment1a/high_B_110.png","high","A","true"
"","","","","","html-keyboard-response","112","2.1.0","210117","pw1k6a14zsv","easy2","rabbit","null","null","<div style=""font-size:60px;"">+</div>","","",""
"","","","","","html-keyboard-response","113","2.1.0","210620","pw1k6a14zsv","easy2","rabbit","null","null","<div style=""font-size:60px;"">+</div>","","",""
"","","","","","categorize-image","114","2.1.0","214133","pw1k6a14zsv","easy2","rabbit","1510","b","stimuli/experiment1a/high_A_010.png","high","B","true"
"","","","","","html-keyboard-response","115","2.1.0","214636","pw1k6a14zsv","easy2","rabbit","null","null","<div style=""font-size:60px;"">+</div>","","",""
"","","","","","html-keyboard-response","116","2.1.0","215139","pw1k6a14zsv","easy2","rabbit","null","null","<div style=""font-size:60px;"">+</div>","","",""
"","","","","","categorize-image","117","2.1.0","218174","pw1k6a14zsv","easy2","rabbit","1031","a","stimuli/experiment1a/high_B_101.png","high","A","true"
"","","","","","html-keyboard-response","118","2.1.0","218676","pw1k6a14zsv","easy2","rabbit","null","null","<div style=""font-size:60px;"">+</div>","","",""
"","","","","","html-keyboard-response","119","2.1.0","219178","pw1k6a14zsv","easy2","rabbit","null","null","<div style=""font-size:60px;"">+</div>","","",""
"","","","","","categorize-image","120","2.1.0","223552","pw1k6a14zsv","easy2","rabbit","2371","a","stimuli/experiment1a/high_B_111.png","high","A","true"
"","","","","","image-keyboard-response","121","null","225905","pw1k6a14zsv","easy2","rabbit","2351","q","stimuli/experiment_check.webp","","",""
"","","","","","html-keyboard-response","122","2.1.0","227908","pw1k6a14zsv","easy2","rabbit","null","null","<p>Fluffy blesses you. Good job!</p><p>Press any key to continue.</p>","","",""
"","","","","","html-keyboard-response","123","2.1.0","229791","pw1k6a14zsv","easy2","rabbit","1882"," ","<p><strong>TEST BLOCK 4 FINISHED</strong></p><p>Press any key to continue.</p>","","",""
"","","","","","html-keyboard-response","124","2.1.0","230293","pw1k6a14zsv","easy2","rabbit","null","null","<div style=""font-size:60px;"">+</div>","","",""
"","","","","","html-keyboard-response","125","2.1.0","230794","pw1k6a14zsv","easy2","rabbit","null","null","<div style=""font-size:60px;"">+</div>","","",""
"","","","","","categorize-image","126","2.1.0","234088","pw1k6a14zsv","easy2","rabbit","1291","a","stimuli/experiment1a/high_B_111.png","high","A","true"
"","","","","","html-keyboard-response","127","2.1.0","234592","pw1k6a14zsv","easy2","rabbit","null","null","<div style=""font-size:60px;"">+</div>","","",""
"","","","","","html-keyboard-response","128","2.1.0","235094","pw1k6a14zsv","easy2","rabbit","null","null","<div style=""font-size:60px;"">+</div>","","",""
"","","","","","categorize-image","129","2.1.0","237938","pw1k6a14zsv","easy2","rabbit","840","b","stimuli/experiment1a/high_A_010.png","high","B","true"
"","","","","","html-keyboard-response","130","2.1.0","238442","pw1k6a14zsv","easy2","rabbit","null","null","<div style=""font-size:60px;"">+</div>","","",""
"","","","","","html-keyboard-response","131","2.1.0","238944","pw1k6a14zsv","easy2","rabbit","null","null","<div style=""font-size:60px;"">+</div>","","",""
"","","","","","categorize-image","132","2.1.0","241863","pw1k6a14zsv","easy2","rabbit","915","a","stimuli/experiment1a/high_B_111.png","high","A","true"
"","","","","","html-keyboard-response","133","2.1.0","242366","pw1k6a14zsv","easy2","rabbit","null","null","<div style=""font-size:60px;"">+</div>","","",""
"","","","","","html-keyboard-response","134","2.1.0","242868","pw1k6a14zsv","easy2","rabbit","null","null","<div style=""font-size:60px;"">+</div>","","",""
"","","","","","categorize-image","135","2.1.0","245731","pw1k6a14zsv","easy2","rabbit","860","a","stimuli/experiment1a/high_B_101.png","high","A","true"
"","","","","","html-keyboard-response","136","2.1.0","246234","pw1k6a14zsv","easy2","rabbit","null","null","<div style=""font-size:60px;"">+</div>","","",""
"","","","","","html-keyboard-response","137","2.1.0","246736","pw1k6a14zsv","easy2","rabbit","null","null","<div style=""font-size:60px;"">+</div>","","",""
"","","","","","categorize-image","138","2.1.0","250063","pw1k6a14zsv","easy2","rabbit","1323","b","stimuli/experiment1a/high_A_000.png","high","B","true"
"","","","","","html-keyboard-response","139","2.1.0","250565","pw1k6a14zsv","easy2","rabbit","null","null","<div style=""font-size:60px;"">+</div>","","",""
"","","","","","html-keyboard-response","140","2.1.0","251069","pw1k6a14zsv","easy2","rabbit","null","null","<div style=""font-size:60px;"">+</div>","","",""
"","","","","","categorize-image","141","2.1.0","254397","pw1k6a14zsv","easy2","rabbit","1325","a","stimuli/experiment1a/high_B_110.png","high","A","true"
"","","","","","html-keyboard-response","142","2.1.0","254901","pw1k6a14zsv","easy2","rabbit","null","null","<div style=""font-size:60px;"">+</div>","","",""
"","","","","","html-keyboard-response","143","2.1.0","255403","pw1k6a14zsv","easy2","rabbit","null","null","<div style=""font-size:60px;"">+</div>","","",""
"","","","","","categorize-image","144","2.1.0","258790","pw1k6a14zsv","easy2","rabbit","1384","b","stimuli/experiment1a/high_A_001.png","high","B","true"
"","","","","","html-keyboard-response","145","2.1.0","259292","pw1k6a14zsv","easy2","rabbit","null","null","<div style=""font-size:60px;"">+</div>","","",""
"","","","","","html-keyboard-response","146","2.1.0","259794","pw1k6a14zsv","easy2","rabbit","null","null","<div style=""font-size:60px;"">+</div>","","",""
"","","","","","categorize-image","147","2.1.0","263461","pw1k6a14zsv","easy2","rabbit","1663","b","stimuli/experiment1a/high_A_000.png","high","B","true"
"","","","","","image-keyboard-response","148","null","273181","pw1k6a14zsv","easy2","rabbit","9717","q","stimuli/experiment_check.webp","","",""
"","","","","","html-keyboard-response","149","2.1.0","274961","pw1k6a14zsv","easy2","rabbit","1779"," ","<p>Fluffy blesses you. Good job!</p><p>Press any key to continue.</p>","","",""
"","","","","","html-keyboard-response","150","2.1.0","276294","pw1k6a14zsv","easy2","rabbit","1332"," ","<p><strong>TEST BLOCK 5 FINISHED</strong></p><p>Press any key to continue.</p>","","",""
"","","","","","html-keyboard-response","151","2.1.0","276795","pw1k6a14zsv","easy2","rabbit","null","null","<div style=""font-size:60px;"">+</div>","","",""
"","","","","","html-keyboard-response","152","2.1.0","277298","pw1k6a14zsv","easy2","rabbit","null","null","<div style=""font-size:60px;"">+</div>","","",""
"","","","","","categorize-image","153","2.1.0","280423","pw1k6a14zsv","easy2","rabbit","1122","a","stimuli/experiment1a/high_B_101.png","high","A","true"
"","","","","","html-keyboard-response","154","2.1.0","280927","pw1k6a14zsv","easy2","rabbit","null","null","<div style=""font-size:60px;"">+</div>","","",""
"","","","","","html-keyboard-response","155","2.1.0","281429","pw1k6a14zsv","easy2","rabbit","null","null","<div style=""font-size:60px;"">+</div>","","",""
"","","","","","categorize-image","156","2.1.0","284516","pw1k6a14zsv","easy2","rabbit","1083","b","stimuli/experiment1a/high_A_010.png","high","B","true"
"","","","","","html-keyboard-response","157","2.1.0","285019","pw1k6a14zsv","easy2","rabbit","null","null","<div style=""font-size:60px;"">+</div>","","",""
"","","","","","html-keyboard-response","158","2.1.0","285521","pw1k6a14zsv","easy2","rabbit","null","null","<div style=""font-size:60px;"">+</div>","","",""
"","","","","","categorize-image","159","2.1.0","289073","pw1k6a14zsv","easy2","rabbit","1547","b","stimuli/experiment1a/high_B_111.png","high","A","false"
"","","","","","html-keyboard-response","160","2.1.0","289576","pw1k6a14zsv","easy2","rabbit","null","null","<div style=""font-size:60px;"">+</div>","","",""
"","","","","","categorize-image","161","2.1.0","293921","pw1k6a14zsv","easy2","rabbit","2341","a","stimuli/experiment1a/high_B_111.png","high","A","true"
"","","","","","html-keyboard-response","162","2.1.0","294424","pw1k6a14zsv","easy2","rabbit","null","null","<div style=""font-size:60px;"">+</div>","","",""
"","","","","","html-keyboard-response","163","2.1.0","294926","pw1k6a14zsv","easy2","rabbit","null","null","<div style=""font-size:60px;"">+</div>","","",""
"","","","","","categorize-image","164","2.1.0","298150","pw1k6a14zsv","easy2","rabbit","1220","b","stimuli/experiment1a/high_A_000.png","high","B","true"
"","","","","","html-keyboard-response","165","2.1.0","298652","pw1k6a14zsv","easy2","rabbit","null","null","<div style=""font-size:60px;"">+</div>","","",""
"","","","","","html-keyboard-response","166","2.1.0","299154","pw1k6a14zsv","easy2","rabbit","null","null","<div style=""font-size:60px;"">+</div>","","",""
"","","","","","categorize-image","167","2.1.0","302246","pw1k6a14zsv","easy2","rabbit","1088","b","stimuli/experiment1a/high_A_001.png","high","B","true"
"","","","","","html-keyboard-response","168","2.1.0","302748","pw1k6a14zsv","easy2","rabbit","null","null","<div style=""font-size:60px;"">+</div>","","",""
"","","","","","html-keyboard-response","169","2.1.0","303251","pw1k6a14zsv","easy2","rabbit","null","null","<div style=""font-size:60px;"">+</div>","","",""
"","","","","","categorize-image","170","2.1.0","310793","pw1k6a14zsv","easy2","rabbit","5537","b","stimuli/experiment1a/high_A_000.png","high","B","true"
"","","","","","html-keyboard-response","171","2.1.0","311295","pw1k6a14zsv","easy2","rabbit","null","null","<div style=""font-size:60px;"">+</div>","","",""
"","","","","","html-keyboard-response","172","2.1.0","311797","pw1k6a14zsv","easy2","rabbit","null","null","<div style=""font-size:60px;"">+</div>","","",""
"","","","","","categorize-image","173","2.1.0","315025","pw1k6a14zsv","easy2","rabbit","1223","a","stimuli/experiment1a/high_B_111.png","high","A","true"
"","","","","","html-keyboard-response","174","2.1.0","315528","pw1k6a14zsv","easy2","rabbit","null","null","<div style=""font-size:60px;"">+</div>","","",""
"","","","","","html-keyboard-response","175","2.1.0","316030","pw1k6a14zsv","easy2","rabbit","null","null","<div style=""font-size:60px;"">+</div>","","",""
"","","","","","categorize-image","176","2.1.0","321669","pw1k6a14zsv","easy2","rabbit","3635","b","stimuli/experiment1a/high_B_110.png","high","A","false"
"","","","","","html-keyboard-response","177","2.1.0","322172","pw1k6a14zsv","easy2","rabbit","null","null","<div style=""font-size:60px;"">+</div>","","",""
"","","","","","categorize-image","178","2.1.0","325131","pw1k6a14zsv","easy2","rabbit","955","a","stimuli/experiment1a/high_B_110.png","high","A","true"
"","","","","","image-keyboard-response","179","null","326628","pw1k6a14zsv","easy2","rabbit","1494","q","stimuli/experiment_check.webp","","",""
"","","","","","html-keyboard-response","180","2.1.0","327498","pw1k6a14zsv","easy2","rabbit","869"," ","<p>Fluffy blesses you. Good job!</p><p>Press any key to continue.</p>","","",""
"","","","","","html-keyboard-response","181","2.1.0","328537","pw1k6a14zsv","easy2","rabbit","1038"," ","<p><strong>TEST BLOCK 6 FINISHED</strong></p><p>Press any key to continue.</p>","","",""
"","","","","","survey-text","182","2.1.0","376980","pw1k6a14zsv","easy2","rabbit","48435","{""Language"":""yes"",""Art_background"":""kindda, painting and watercolors"",""Strategy"":""classifications""}","","","",""
"","","","","","survey-text","183","2.1.0","391129","pw1k6a14zsv","easy2","rabbit","14148","{""Issues"":""none"",""Why_experiment"":""color theory"",""Extra_info"":""none""}","","","",""
